{
    "entry": [
        {
            "request": {
                "method": "PUT", 
                "url": "Observation/ehealth-1391-lab"
            }, 
            "resource": {
                "category": [
                    {
                        "coding": [
                            {
                                "code": "laboratory", 
                                "display": "Laboratory", 
                                "system": "http://hl7.org/fhir/observation-category"
                            }
                        ], 
                        "text": "Laboratory"
                    }
                ], 
                "code": {
                    "coding": [
                        {
                            "code": "789-8", 
                            "display": "RBC # Bld Auto", 
                            "system": "http://loinc.org"
                        }
                    ], 
                    "text": "RBC # Bld Auto"
                }, 
                "effectiveDateTime": "2006-07-25", 
                "id": "ehealth-1391-lab", 
                "identifier": [
                    {
                        "system": "http://www.bmc.nl/zorgportal/identifiers/observations", 
                        "use": "official", 
                        "value": "ehealth-1391-lab"
                    }
                ], 
                "performer": [
                    {
                        "reference": "Practitioner/ehealth-Practitioner-7880378"
                    }
                ], 
                "referenceRange": [
                    {
                        "high": {
                            "code": "10*6/uL", 
                            "system": "http://unitsofmeasure.org", 
                            "unit": "10*6/uL", 
                            "value": 6.0
                        }, 
                        "low": {
                            "code": "10*6/uL", 
                            "system": "http://unitsofmeasure.org", 
                            "unit": "10*6/uL", 
                            "value": 4.6
                        }, 
                        "type": {
                            "coding": [
                                {
                                    "code": "normal", 
                                    "display": "Normal Range", 
                                    "system": "http://hl7.org/fhir/referencerange-meaning"
                                }
                            ], 
                            "text": "Normal Range"
                        }
                    }
                ], 
                "resourceType": "Observation", 
                "status": "unknown", 
                "subject": {
                    "reference": "Patient/ehealth-1796238"
                }, 
                "text": {
                    "div": "<div xmlns=\"http://www.w3.org/1999/xhtml\">2006-07-25: RBC # Bld Auto = 4.59 10*6/uL</div>", 
                    "status": "generated"
                }, 
                "valueQuantity": {
                    "code": "10*6/uL", 
                    "system": "http://unitsofmeasure.org", 
                    "unit": "10*6/uL", 
                    "value": 4.59
                }
            }
        }, 
        {
            "request": {
                "method": "PUT", 
                "url": "Observation/ehealth-1392-lab"
            }, 
            "resource": {
                "category": [
                    {
                        "coding": [
                            {
                                "code": "laboratory", 
                                "display": "Laboratory", 
                                "system": "http://hl7.org/fhir/observation-category"
                            }
                        ], 
                        "text": "Laboratory"
                    }
                ], 
                "code": {
                    "coding": [
                        {
                            "code": "2823-3", 
                            "display": "Potassium SerPl-sCnc", 
                            "system": "http://loinc.org"
                        }
                    ], 
                    "text": "Potassium SerPl-sCnc"
                }, 
                "effectiveDateTime": "2006-07-25", 
                "id": "ehealth-1392-lab", 
                "identifier": [
                    {
                        "system": "http://www.bmc.nl/zorgportal/identifiers/observations", 
                        "use": "official", 
                        "value": "ehealth-1392-lab"
                    }
                ], 
                "performer": [
                    {
                        "reference": "Practitioner/ehealth-Practitioner-7880378"
                    }
                ], 
                "referenceRange": [
                    {
                        "high": {
                            "code": "mmol/L", 
                            "system": "http://unitsofmeasure.org", 
                            "unit": "mmol/L", 
                            "value": 5.5
                        }, 
                        "low": {
                            "code": "mmol/L", 
                            "system": "http://unitsofmeasure.org", 
                            "unit": "mmol/L", 
                            "value": 3.5
                        }, 
                        "type": {
                            "coding": [
                                {
                                    "code": "normal", 
                                    "display": "Normal Range", 
                                    "system": "http://hl7.org/fhir/referencerange-meaning"
                                }
                            ], 
                            "text": "Normal Range"
                        }
                    }
                ], 
                "resourceType": "Observation", 
                "status": "unknown", 
                "subject": {
                    "reference": "Patient/ehealth-1796238"
                }, 
                "text": {
                    "div": "<div xmlns=\"http://www.w3.org/1999/xhtml\">2006-07-25: Potassium SerPl-sCnc = 3.8 mmol/L</div>", 
                    "status": "generated"
                }, 
                "valueQuantity": {
                    "code": "mmol/L", 
                    "system": "http://unitsofmeasure.org", 
                    "unit": "mmol/L", 
                    "value": 3.8
                }
            }
        }, 
        {
            "request": {
                "method": "PUT", 
                "url": "Observation/ehealth-1393-lab"
            }, 
            "resource": {
                "category": [
                    {
                        "coding": [
                            {
                                "code": "laboratory", 
                                "display": "Laboratory", 
                                "system": "http://hl7.org/fhir/observation-category"
                            }
                        ], 
                        "text": "Laboratory"
                    }
                ], 
                "code": {
                    "coding": [
                        {
                            "code": "2075-0", 
                            "display": "Chloride SerPl-sCnc", 
                            "system": "http://loinc.org"
                        }
                    ], 
                    "text": "Chloride SerPl-sCnc"
                }, 
                "effectiveDateTime": "2006-07-25", 
                "id": "ehealth-1393-lab", 
                "identifier": [
                    {
                        "system": "http://www.bmc.nl/zorgportal/identifiers/observations", 
                        "use": "official", 
                        "value": "ehealth-1393-lab"
                    }
                ], 
                "performer": [
                    {
                        "reference": "Practitioner/ehealth-Practitioner-7880378"
                    }
                ], 
                "referenceRange": [
                    {
                        "high": {
                            "code": "mmol/L", 
                            "system": "http://unitsofmeasure.org", 
                            "unit": "mmol/L", 
                            "value": 105.0
                        }, 
                        "low": {
                            "code": "mmol/L", 
                            "system": "http://unitsofmeasure.org", 
                            "unit": "mmol/L", 
                            "value": 95.0
                        }, 
                        "type": {
                            "coding": [
                                {
                                    "code": "normal", 
                                    "display": "Normal Range", 
                                    "system": "http://hl7.org/fhir/referencerange-meaning"
                                }
                            ], 
                            "text": "Normal Range"
                        }
                    }
                ], 
                "resourceType": "Observation", 
                "status": "unknown", 
                "subject": {
                    "reference": "Patient/ehealth-1796238"
                }, 
                "text": {
                    "div": "<div xmlns=\"http://www.w3.org/1999/xhtml\">2006-07-25: Chloride SerPl-sCnc = 99 mmol/L</div>", 
                    "status": "generated"
                }, 
                "valueQuantity": {
                    "code": "mmol/L", 
                    "system": "http://unitsofmeasure.org", 
                    "unit": "mmol/L", 
                    "value": 99.0
                }
            }
        }, 
        {
            "request": {
                "method": "PUT", 
                "url": "Observation/ehealth-1394-lab"
            }, 
            "resource": {
                "category": [
                    {
                        "coding": [
                            {
                                "code": "laboratory", 
                                "display": "Laboratory", 
                                "system": "http://hl7.org/fhir/observation-category"
                            }
                        ], 
                        "text": "Laboratory"
                    }
                ], 
                "code": {
                    "coding": [
                        {
                            "code": "2028-9", 
                            "display": "CO2 SerPl-sCnc", 
                            "system": "http://loinc.org"
                        }
                    ], 
                    "text": "CO2 SerPl-sCnc"
                }, 
                "effectiveDateTime": "2006-07-25", 
                "id": "ehealth-1394-lab", 
                "identifier": [
                    {
                        "system": "http://www.bmc.nl/zorgportal/identifiers/observations", 
                        "use": "official", 
                        "value": "ehealth-1394-lab"
                    }
                ], 
                "performer": [
                    {
                        "reference": "Practitioner/ehealth-Practitioner-7880378"
                    }
                ], 
                "referenceRange": [
                    {
                        "high": {
                            "code": "mmol/L", 
                            "system": "http://unitsofmeasure.org", 
                            "unit": "mmol/L", 
                            "value": 29.0
                        }, 
                        "low": {
                            "code": "mmol/L", 
                            "system": "http://unitsofmeasure.org", 
                            "unit": "mmol/L", 
                            "value": 22.0
                        }, 
                        "type": {
                            "coding": [
                                {
                                    "code": "normal", 
                                    "display": "Normal Range", 
                                    "system": "http://hl7.org/fhir/referencerange-meaning"
                                }
                            ], 
                            "text": "Normal Range"
                        }
                    }
                ], 
                "resourceType": "Observation", 
                "status": "unknown", 
                "subject": {
                    "reference": "Patient/ehealth-1796238"
                }, 
                "text": {
                    "div": "<div xmlns=\"http://www.w3.org/1999/xhtml\">2006-07-25: CO2 SerPl-sCnc = 28 mmol/L</div>", 
                    "status": "generated"
                }, 
                "valueQuantity": {
                    "code": "mmol/L", 
                    "system": "http://unitsofmeasure.org", 
                    "unit": "mmol/L", 
                    "value": 28.0
                }
            }
        }, 
        {
            "request": {
                "method": "PUT", 
                "url": "Observation/ehealth-1395-lab"
            }, 
            "resource": {
                "category": [
                    {
                        "coding": [
                            {
                                "code": "laboratory", 
                                "display": "Laboratory", 
                                "system": "http://hl7.org/fhir/observation-category"
                            }
                        ], 
                        "text": "Laboratory"
                    }
                ], 
                "code": {
                    "coding": [
                        {
                            "code": "2951-2", 
                            "display": "Sodium SerPl-sCnc", 
                            "system": "http://loinc.org"
                        }
                    ], 
                    "text": "Sodium SerPl-sCnc"
                }, 
                "effectiveDateTime": "2006-07-25", 
                "id": "ehealth-1395-lab", 
                "identifier": [
                    {
                        "system": "http://www.bmc.nl/zorgportal/identifiers/observations", 
                        "use": "official", 
                        "value": "ehealth-1395-lab"
                    }
                ], 
                "performer": [
                    {
                        "reference": "Practitioner/ehealth-Practitioner-7880378"
                    }
                ], 
                "referenceRange": [
                    {
                        "high": {
                            "code": "mmol/L", 
                            "system": "http://unitsofmeasure.org", 
                            "unit": "mmol/L", 
                            "value": 145.0
                        }, 
                        "low": {
                            "code": "mmol/L", 
                            "system": "http://unitsofmeasure.org", 
                            "unit": "mmol/L", 
                            "value": 135.0
                        }, 
                        "type": {
                            "coding": [
                                {
                                    "code": "normal", 
                                    "display": "Normal Range", 
                                    "system": "http://hl7.org/fhir/referencerange-meaning"
                                }
                            ], 
                            "text": "Normal Range"
                        }
                    }
                ], 
                "resourceType": "Observation", 
                "status": "unknown", 
                "subject": {
                    "reference": "Patient/ehealth-1796238"
                }, 
                "text": {
                    "div": "<div xmlns=\"http://www.w3.org/1999/xhtml\">2006-07-25: Sodium SerPl-sCnc = 138 mmol/L</div>", 
                    "status": "generated"
                }, 
                "valueQuantity": {
                    "code": "mmol/L", 
                    "system": "http://unitsofmeasure.org", 
                    "unit": "mmol/L", 
                    "value": 138.0
                }
            }
        }, 
        {
            "request": {
                "method": "PUT", 
                "url": "Observation/ehealth-1396-lab"
            }, 
            "resource": {
                "category": [
                    {
                        "coding": [
                            {
                                "code": "laboratory", 
                                "display": "Laboratory", 
                                "system": "http://hl7.org/fhir/observation-category"
                            }
                        ], 
                        "text": "Laboratory"
                    }
                ], 
                "code": {
                    "coding": [
                        {
                            "code": "28542-9", 
                            "display": "PMV Bld", 
                            "system": "http://loinc.org"
                        }
                    ], 
                    "text": "PMV Bld"
                }, 
                "effectiveDateTime": "2006-07-25", 
                "id": "ehealth-1396-lab", 
                "identifier": [
                    {
                        "system": "http://www.bmc.nl/zorgportal/identifiers/observations", 
                        "use": "official", 
                        "value": "ehealth-1396-lab"
                    }
                ], 
                "performer": [
                    {
                        "reference": "Practitioner/ehealth-Practitioner-7880378"
                    }
                ], 
                "referenceRange": [
                    {
                        "high": {
                            "code": "fL", 
                            "system": "http://unitsofmeasure.org", 
                            "unit": "fL", 
                            "value": 9.6
                        }, 
                        "low": {
                            "code": "fL", 
                            "system": "http://unitsofmeasure.org", 
                            "unit": "fL", 
                            "value": 6.3
                        }, 
                        "type": {
                            "coding": [
                                {
                                    "code": "normal", 
                                    "display": "Normal Range", 
                                    "system": "http://hl7.org/fhir/referencerange-meaning"
                                }
                            ], 
                            "text": "Normal Range"
                        }
                    }
                ], 
                "resourceType": "Observation", 
                "status": "unknown", 
                "subject": {
                    "reference": "Patient/ehealth-1796238"
                }, 
                "text": {
                    "div": "<div xmlns=\"http://www.w3.org/1999/xhtml\">2006-07-25: PMV Bld = 9 fL</div>", 
                    "status": "generated"
                }, 
                "valueQuantity": {
                    "code": "fL", 
                    "system": "http://unitsofmeasure.org", 
                    "unit": "fL", 
                    "value": 9.0
                }
            }
        }, 
        {
            "request": {
                "method": "PUT", 
                "url": "Observation/ehealth-1397-lab"
            }, 
            "resource": {
                "category": [
                    {
                        "coding": [
                            {
                                "code": "laboratory", 
                                "display": "Laboratory", 
                                "system": "http://hl7.org/fhir/observation-category"
                            }
                        ], 
                        "text": "Laboratory"
                    }
                ], 
                "code": {
                    "coding": [
                        {
                            "code": "30385-9", 
                            "display": "RDW RBC-Rto", 
                            "system": "http://loinc.org"
                        }
                    ], 
                    "text": "RDW RBC-Rto"
                }, 
                "effectiveDateTime": "2006-07-25", 
                "id": "ehealth-1397-lab", 
                "identifier": [
                    {
                        "system": "http://www.bmc.nl/zorgportal/identifiers/observations", 
                        "use": "official", 
                        "value": "ehealth-1397-lab"
                    }
                ], 
                "performer": [
                    {
                        "reference": "Practitioner/ehealth-Practitioner-7880378"
                    }
                ], 
                "referenceRange": [
                    {
                        "high": {
                            "code": "%", 
                            "system": "http://unitsofmeasure.org", 
                            "unit": "%", 
                            "value": 14.5
                        }, 
                        "low": {
                            "code": "%", 
                            "system": "http://unitsofmeasure.org", 
                            "unit": "%", 
                            "value": 11.5
                        }, 
                        "type": {
                            "coding": [
                                {
                                    "code": "normal", 
                                    "display": "Normal Range", 
                                    "system": "http://hl7.org/fhir/referencerange-meaning"
                                }
                            ], 
                            "text": "Normal Range"
                        }
                    }
                ], 
                "resourceType": "Observation", 
                "status": "unknown", 
                "subject": {
                    "reference": "Patient/ehealth-1796238"
                }, 
                "text": {
                    "div": "<div xmlns=\"http://www.w3.org/1999/xhtml\">2006-07-25: RDW RBC-Rto = 13.6 %</div>", 
                    "status": "generated"
                }, 
                "valueQuantity": {
                    "code": "%", 
                    "system": "http://unitsofmeasure.org", 
                    "unit": "%", 
                    "value": 13.6
                }
            }
        }, 
        {
            "request": {
                "method": "PUT", 
                "url": "Observation/ehealth-1398-lab"
            }, 
            "resource": {
                "category": [
                    {
                        "coding": [
                            {
                                "code": "laboratory", 
                                "display": "Laboratory", 
                                "system": "http://hl7.org/fhir/observation-category"
                            }
                        ], 
                        "text": "Laboratory"
                    }
                ], 
                "code": {
                    "coding": [
                        {
                            "code": "2345-7", 
                            "display": "Glucose SerPl-mCnc", 
                            "system": "http://loinc.org"
                        }
                    ], 
                    "text": "Glucose SerPl-mCnc"
                }, 
                "effectiveDateTime": "2006-07-25", 
                "id": "ehealth-1398-lab", 
                "identifier": [
                    {
                        "system": "http://www.bmc.nl/zorgportal/identifiers/observations", 
                        "use": "official", 
                        "value": "ehealth-1398-lab"
                    }
                ], 
                "performer": [
                    {
                        "reference": "Practitioner/ehealth-Practitioner-7880378"
                    }
                ], 
                "referenceRange": [
                    {
                        "high": {
                            "code": "mg/dL", 
                            "system": "http://unitsofmeasure.org", 
                            "unit": "mg/dL", 
                            "value": 109.0
                        }, 
                        "low": {
                            "code": "mg/dL", 
                            "system": "http://unitsofmeasure.org", 
                            "unit": "mg/dL", 
                            "value": 70.0
                        }, 
                        "type": {
                            "coding": [
                                {
                                    "code": "normal", 
                                    "display": "Normal Range", 
                                    "system": "http://hl7.org/fhir/referencerange-meaning"
                                }
                            ], 
                            "text": "Normal Range"
                        }
                    }
                ], 
                "resourceType": "Observation", 
                "status": "unknown", 
                "subject": {
                    "reference": "Patient/ehealth-1796238"
                }, 
                "text": {
                    "div": "<div xmlns=\"http://www.w3.org/1999/xhtml\">2006-07-25: Glucose SerPl-mCnc = 102 mg/dL</div>", 
                    "status": "generated"
                }, 
                "valueQuantity": {
                    "code": "mg/dL", 
                    "system": "http://unitsofmeasure.org", 
                    "unit": "mg/dL", 
                    "value": 102.0
                }
            }
        }, 
        {
            "request": {
                "method": "PUT", 
                "url": "Observation/ehealth-1399-lab"
            }, 
            "resource": {
                "category": [
                    {
                        "coding": [
                            {
                                "code": "laboratory", 
                                "display": "Laboratory", 
                                "system": "http://hl7.org/fhir/observation-category"
                            }
                        ], 
                        "text": "Laboratory"
                    }
                ], 
                "code": {
                    "coding": [
                        {
                            "code": "3094-0", 
                            "display": "BUN SerPl-mCnc", 
                            "system": "http://loinc.org"
                        }
                    ], 
                    "text": "BUN SerPl-mCnc"
                }, 
                "effectiveDateTime": "2006-07-25", 
                "id": "ehealth-1399-lab", 
                "identifier": [
                    {
                        "system": "http://www.bmc.nl/zorgportal/identifiers/observations", 
                        "use": "official", 
                        "value": "ehealth-1399-lab"
                    }
                ], 
                "performer": [
                    {
                        "reference": "Practitioner/ehealth-Practitioner-7880378"
                    }
                ], 
                "referenceRange": [
                    {
                        "high": {
                            "code": "mg/dL", 
                            "system": "http://unitsofmeasure.org", 
                            "unit": "mg/dL", 
                            "value": 20.0
                        }, 
                        "low": {
                            "code": "mg/dL", 
                            "system": "http://unitsofmeasure.org", 
                            "unit": "mg/dL", 
                            "value": 5.0
                        }, 
                        "type": {
                            "coding": [
                                {
                                    "code": "normal", 
                                    "display": "Normal Range", 
                                    "system": "http://hl7.org/fhir/referencerange-meaning"
                                }
                            ], 
                            "text": "Normal Range"
                        }
                    }
                ], 
                "resourceType": "Observation", 
                "status": "unknown", 
                "subject": {
                    "reference": "Patient/ehealth-1796238"
                }, 
                "text": {
                    "div": "<div xmlns=\"http://www.w3.org/1999/xhtml\">2006-07-25: BUN SerPl-mCnc = 15 mg/dL</div>", 
                    "status": "generated"
                }, 
                "valueQuantity": {
                    "code": "mg/dL", 
                    "system": "http://unitsofmeasure.org", 
                    "unit": "mg/dL", 
                    "value": 15.0
                }
            }
        }, 
        {
            "request": {
                "method": "PUT", 
                "url": "Observation/ehealth-1400-lab"
            }, 
            "resource": {
                "category": [
                    {
                        "coding": [
                            {
                                "code": "laboratory", 
                                "display": "Laboratory", 
                                "system": "http://hl7.org/fhir/observation-category"
                            }
                        ], 
                        "text": "Laboratory"
                    }
                ], 
                "code": {
                    "coding": [
                        {
                            "code": "718-7", 
                            "display": "Hgb Bld-mCnc", 
                            "system": "http://loinc.org"
                        }
                    ], 
                    "text": "Hgb Bld-mCnc"
                }, 
                "effectiveDateTime": "2006-07-25", 
                "id": "ehealth-1400-lab", 
                "identifier": [
                    {
                        "system": "http://www.bmc.nl/zorgportal/identifiers/observations", 
                        "use": "official", 
                        "value": "ehealth-1400-lab"
                    }
                ], 
                "performer": [
                    {
                        "reference": "Practitioner/ehealth-Practitioner-7880378"
                    }
                ], 
                "referenceRange": [
                    {
                        "high": {
                            "code": "g/dL", 
                            "system": "http://unitsofmeasure.org", 
                            "unit": "g/dL", 
                            "value": 18.0
                        }, 
                        "low": {
                            "code": "g/dL", 
                            "system": "http://unitsofmeasure.org", 
                            "unit": "g/dL", 
                            "value": 14.0
                        }, 
                        "type": {
                            "coding": [
                                {
                                    "code": "normal", 
                                    "display": "Normal Range", 
                                    "system": "http://hl7.org/fhir/referencerange-meaning"
                                }
                            ], 
                            "text": "Normal Range"
                        }
                    }
                ], 
                "resourceType": "Observation", 
                "status": "unknown", 
                "subject": {
                    "reference": "Patient/ehealth-1796238"
                }, 
                "text": {
                    "div": "<div xmlns=\"http://www.w3.org/1999/xhtml\">2006-07-25: Hgb Bld-mCnc = 12.5 g/dL</div>", 
                    "status": "generated"
                }, 
                "valueQuantity": {
                    "code": "g/dL", 
                    "system": "http://unitsofmeasure.org", 
                    "unit": "g/dL", 
                    "value": 12.5
                }
            }
        }, 
        {
            "request": {
                "method": "PUT", 
                "url": "Observation/ehealth-1401-lab"
            }, 
            "resource": {
                "category": [
                    {
                        "coding": [
                            {
                                "code": "laboratory", 
                                "display": "Laboratory", 
                                "system": "http://hl7.org/fhir/observation-category"
                            }
                        ], 
                        "text": "Laboratory"
                    }
                ], 
                "code": {
                    "coding": [
                        {
                            "code": "2339-0", 
                            "display": "Glucose Bld-mCnc", 
                            "system": "http://loinc.org"
                        }
                    ], 
                    "text": "Glucose Bld-mCnc"
                }, 
                "effectiveDateTime": "2006-07-25", 
                "id": "ehealth-1401-lab", 
                "identifier": [
                    {
                        "system": "http://www.bmc.nl/zorgportal/identifiers/observations", 
                        "use": "official", 
                        "value": "ehealth-1401-lab"
                    }
                ], 
                "performer": [
                    {
                        "reference": "Practitioner/ehealth-Practitioner-7880378"
                    }
                ], 
                "referenceRange": [
                    {
                        "high": {
                            "code": "mg/dL", 
                            "system": "http://unitsofmeasure.org", 
                            "unit": "mg/dL", 
                            "value": 109.0
                        }, 
                        "low": {
                            "code": "mg/dL", 
                            "system": "http://unitsofmeasure.org", 
                            "unit": "mg/dL", 
                            "value": 70.0
                        }, 
                        "type": {
                            "coding": [
                                {
                                    "code": "normal", 
                                    "display": "Normal Range", 
                                    "system": "http://hl7.org/fhir/referencerange-meaning"
                                }
                            ], 
                            "text": "Normal Range"
                        }
                    }
                ], 
                "resourceType": "Observation", 
                "status": "unknown", 
                "subject": {
                    "reference": "Patient/ehealth-1796238"
                }, 
                "text": {
                    "div": "<div xmlns=\"http://www.w3.org/1999/xhtml\">2006-07-25: Glucose Bld-mCnc = 50 mg/dL</div>", 
                    "status": "generated"
                }, 
                "valueQuantity": {
                    "code": "mg/dL", 
                    "system": "http://unitsofmeasure.org", 
                    "unit": "mg/dL", 
                    "value": 50.0
                }
            }
        }, 
        {
            "request": {
                "method": "PUT", 
                "url": "Observation/ehealth-1402-lab"
            }, 
            "resource": {
                "category": [
                    {
                        "coding": [
                            {
                                "code": "laboratory", 
                                "display": "Laboratory", 
                                "system": "http://hl7.org/fhir/observation-category"
                            }
                        ], 
                        "text": "Laboratory"
                    }
                ], 
                "code": {
                    "coding": [
                        {
                            "code": "2339-0", 
                            "display": "Glucose Bld-mCnc", 
                            "system": "http://loinc.org"
                        }
                    ], 
                    "text": "Glucose Bld-mCnc"
                }, 
                "effectiveDateTime": "2006-07-25", 
                "id": "ehealth-1402-lab", 
                "identifier": [
                    {
                        "system": "http://www.bmc.nl/zorgportal/identifiers/observations", 
                        "use": "official", 
                        "value": "ehealth-1402-lab"
                    }
                ], 
                "performer": [
                    {
                        "reference": "Practitioner/ehealth-Practitioner-7880378"
                    }
                ], 
                "referenceRange": [
                    {
                        "high": {
                            "code": "mg/dL", 
                            "system": "http://unitsofmeasure.org", 
                            "unit": "mg/dL", 
                            "value": 109.0
                        }, 
                        "low": {
                            "code": "mg/dL", 
                            "system": "http://unitsofmeasure.org", 
                            "unit": "mg/dL", 
                            "value": 70.0
                        }, 
                        "type": {
                            "coding": [
                                {
                                    "code": "normal", 
                                    "display": "Normal Range", 
                                    "system": "http://hl7.org/fhir/referencerange-meaning"
                                }
                            ], 
                            "text": "Normal Range"
                        }
                    }
                ], 
                "resourceType": "Observation", 
                "status": "unknown", 
                "subject": {
                    "reference": "Patient/ehealth-1796238"
                }, 
                "text": {
                    "div": "<div xmlns=\"http://www.w3.org/1999/xhtml\">2006-07-25: Glucose Bld-mCnc = 167 mg/dL</div>", 
                    "status": "generated"
                }, 
                "valueQuantity": {
                    "code": "mg/dL", 
                    "system": "http://unitsofmeasure.org", 
                    "unit": "mg/dL", 
                    "value": 167.0
                }
            }
        }, 
        {
            "request": {
                "method": "PUT", 
                "url": "Observation/ehealth-1403-lab"
            }, 
            "resource": {
                "category": [
                    {
                        "coding": [
                            {
                                "code": "laboratory", 
                                "display": "Laboratory", 
                                "system": "http://hl7.org/fhir/observation-category"
                            }
                        ], 
                        "text": "Laboratory"
                    }
                ], 
                "code": {
                    "coding": [
                        {
                            "code": "2339-0", 
                            "display": "Glucose Bld-mCnc", 
                            "system": "http://loinc.org"
                        }
                    ], 
                    "text": "Glucose Bld-mCnc"
                }, 
                "effectiveDateTime": "2006-07-25", 
                "id": "ehealth-1403-lab", 
                "identifier": [
                    {
                        "system": "http://www.bmc.nl/zorgportal/identifiers/observations", 
                        "use": "official", 
                        "value": "ehealth-1403-lab"
                    }
                ], 
                "performer": [
                    {
                        "reference": "Practitioner/ehealth-Practitioner-7880378"
                    }
                ], 
                "referenceRange": [
                    {
                        "high": {
                            "code": "mg/dL", 
                            "system": "http://unitsofmeasure.org", 
                            "unit": "mg/dL", 
                            "value": 109.0
                        }, 
                        "low": {
                            "code": "mg/dL", 
                            "system": "http://unitsofmeasure.org", 
                            "unit": "mg/dL", 
                            "value": 70.0
                        }, 
                        "type": {
                            "coding": [
                                {
                                    "code": "normal", 
                                    "display": "Normal Range", 
                                    "system": "http://hl7.org/fhir/referencerange-meaning"
                                }
                            ], 
                            "text": "Normal Range"
                        }
                    }
                ], 
                "resourceType": "Observation", 
                "status": "unknown", 
                "subject": {
                    "reference": "Patient/ehealth-1796238"
                }, 
                "text": {
                    "div": "<div xmlns=\"http://www.w3.org/1999/xhtml\">2006-07-25: Glucose Bld-mCnc = 162 mg/dL</div>", 
                    "status": "generated"
                }, 
                "valueQuantity": {
                    "code": "mg/dL", 
                    "system": "http://unitsofmeasure.org", 
                    "unit": "mg/dL", 
                    "value": 162.0
                }
            }
        }, 
        {
            "request": {
                "method": "PUT", 
                "url": "Observation/ehealth-1404-lab"
            }, 
            "resource": {
                "category": [
                    {
                        "coding": [
                            {
                                "code": "laboratory", 
                                "display": "Laboratory", 
                                "system": "http://hl7.org/fhir/observation-category"
                            }
                        ], 
                        "text": "Laboratory"
                    }
                ], 
                "code": {
                    "coding": [
                        {
                            "code": "2339-0", 
                            "display": "Glucose Bld-mCnc", 
                            "system": "http://loinc.org"
                        }
                    ], 
                    "text": "Glucose Bld-mCnc"
                }, 
                "effectiveDateTime": "2006-07-25", 
                "id": "ehealth-1404-lab", 
                "identifier": [
                    {
                        "system": "http://www.bmc.nl/zorgportal/identifiers/observations", 
                        "use": "official", 
                        "value": "ehealth-1404-lab"
                    }
                ], 
                "performer": [
                    {
                        "reference": "Practitioner/ehealth-Practitioner-7880378"
                    }
                ], 
                "referenceRange": [
                    {
                        "high": {
                            "code": "mg/dL", 
                            "system": "http://unitsofmeasure.org", 
                            "unit": "mg/dL", 
                            "value": 109.0
                        }, 
                        "low": {
                            "code": "mg/dL", 
                            "system": "http://unitsofmeasure.org", 
                            "unit": "mg/dL", 
                            "value": 70.0
                        }, 
                        "type": {
                            "coding": [
                                {
                                    "code": "normal", 
                                    "display": "Normal Range", 
                                    "system": "http://hl7.org/fhir/referencerange-meaning"
                                }
                            ], 
                            "text": "Normal Range"
                        }
                    }
                ], 
                "resourceType": "Observation", 
                "status": "unknown", 
                "subject": {
                    "reference": "Patient/ehealth-1796238"
                }, 
                "text": {
                    "div": "<div xmlns=\"http://www.w3.org/1999/xhtml\">2006-07-25: Glucose Bld-mCnc = 113 mg/dL</div>", 
                    "status": "generated"
                }, 
                "valueQuantity": {
                    "code": "mg/dL", 
                    "system": "http://unitsofmeasure.org", 
                    "unit": "mg/dL", 
                    "value": 113.0
                }
            }
        }, 
        {
            "request": {
                "method": "PUT", 
                "url": "Observation/ehealth-1405-lab"
            }, 
            "resource": {
                "category": [
                    {
                        "coding": [
                            {
                                "code": "laboratory", 
                                "display": "Laboratory", 
                                "system": "http://hl7.org/fhir/observation-category"
                            }
                        ], 
                        "text": "Laboratory"
                    }
                ], 
                "code": {
                    "coding": [
                        {
                            "code": "2339-0", 
                            "display": "Glucose Bld-mCnc", 
                            "system": "http://loinc.org"
                        }
                    ], 
                    "text": "Glucose Bld-mCnc"
                }, 
                "effectiveDateTime": "2006-07-25", 
                "id": "ehealth-1405-lab", 
                "identifier": [
                    {
                        "system": "http://www.bmc.nl/zorgportal/identifiers/observations", 
                        "use": "official", 
                        "value": "ehealth-1405-lab"
                    }
                ], 
                "performer": [
                    {
                        "reference": "Practitioner/ehealth-Practitioner-7880378"
                    }
                ], 
                "referenceRange": [
                    {
                        "high": {
                            "code": "mg/dL", 
                            "system": "http://unitsofmeasure.org", 
                            "unit": "mg/dL", 
                            "value": 109.0
                        }, 
                        "low": {
                            "code": "mg/dL", 
                            "system": "http://unitsofmeasure.org", 
                            "unit": "mg/dL", 
                            "value": 70.0
                        }, 
                        "type": {
                            "coding": [
                                {
                                    "code": "normal", 
                                    "display": "Normal Range", 
                                    "system": "http://hl7.org/fhir/referencerange-meaning"
                                }
                            ], 
                            "text": "Normal Range"
                        }
                    }
                ], 
                "resourceType": "Observation", 
                "status": "unknown", 
                "subject": {
                    "reference": "Patient/ehealth-1796238"
                }, 
                "text": {
                    "div": "<div xmlns=\"http://www.w3.org/1999/xhtml\">2006-07-25: Glucose Bld-mCnc = 112 mg/dL</div>", 
                    "status": "generated"
                }, 
                "valueQuantity": {
                    "code": "mg/dL", 
                    "system": "http://unitsofmeasure.org", 
                    "unit": "mg/dL", 
                    "value": 112.0
                }
            }
        }, 
        {
            "request": {
                "method": "PUT", 
                "url": "Observation/ehealth-1406-lab"
            }, 
            "resource": {
                "category": [
                    {
                        "coding": [
                            {
                                "code": "laboratory", 
                                "display": "Laboratory", 
                                "system": "http://hl7.org/fhir/observation-category"
                            }
                        ], 
                        "text": "Laboratory"
                    }
                ], 
                "code": {
                    "coding": [
                        {
                            "code": "10466-1", 
                            "display": "Anion Gap3 SerPl-sCnc", 
                            "system": "http://loinc.org"
                        }
                    ], 
                    "text": "Anion Gap3 SerPl-sCnc"
                }, 
                "effectiveDateTime": "2006-07-25", 
                "id": "ehealth-1406-lab", 
                "identifier": [
                    {
                        "system": "http://www.bmc.nl/zorgportal/identifiers/observations", 
                        "use": "official", 
                        "value": "ehealth-1406-lab"
                    }
                ], 
                "performer": [
                    {
                        "reference": "Practitioner/ehealth-Practitioner-7880378"
                    }
                ], 
                "referenceRange": [
                    {
                        "high": {
                            "code": "mmol/L", 
                            "system": "http://unitsofmeasure.org", 
                            "unit": "mmol/L", 
                            "value": 0.0
                        }, 
                        "low": {
                            "code": "mmol/L", 
                            "system": "http://unitsofmeasure.org", 
                            "unit": "mmol/L", 
                            "value": 0.0
                        }, 
                        "type": {
                            "coding": [
                                {
                                    "code": "normal", 
                                    "display": "Normal Range", 
                                    "system": "http://hl7.org/fhir/referencerange-meaning"
                                }
                            ], 
                            "text": "Normal Range"
                        }
                    }
                ], 
                "resourceType": "Observation", 
                "status": "unknown", 
                "subject": {
                    "reference": "Patient/ehealth-1796238"
                }, 
                "text": {
                    "div": "<div xmlns=\"http://www.w3.org/1999/xhtml\">2006-07-25: Anion Gap3 SerPl-sCnc = 11 mmol/L</div>", 
                    "status": "generated"
                }, 
                "valueQuantity": {
                    "code": "mmol/L", 
                    "system": "http://unitsofmeasure.org", 
                    "unit": "mmol/L", 
                    "value": 11.0
                }
            }
        }, 
        {
            "request": {
                "method": "PUT", 
                "url": "Observation/ehealth-1407-lab"
            }, 
            "resource": {
                "category": [
                    {
                        "coding": [
                            {
                                "code": "laboratory", 
                                "display": "Laboratory", 
                                "system": "http://hl7.org/fhir/observation-category"
                            }
                        ], 
                        "text": "Laboratory"
                    }
                ], 
                "code": {
                    "coding": [
                        {
                            "code": "30428-7", 
                            "display": "MCV RBC", 
                            "system": "http://loinc.org"
                        }
                    ], 
                    "text": "MCV RBC"
                }, 
                "effectiveDateTime": "2006-07-26", 
                "id": "ehealth-1407-lab", 
                "identifier": [
                    {
                        "system": "http://www.bmc.nl/zorgportal/identifiers/observations", 
                        "use": "official", 
                        "value": "ehealth-1407-lab"
                    }
                ], 
                "performer": [
                    {
                        "reference": "Practitioner/ehealth-Practitioner-7880378"
                    }
                ], 
                "referenceRange": [
                    {
                        "high": {
                            "code": "fL", 
                            "system": "http://unitsofmeasure.org", 
                            "unit": "fL", 
                            "value": 94.0
                        }, 
                        "low": {
                            "code": "fL", 
                            "system": "http://unitsofmeasure.org", 
                            "unit": "fL", 
                            "value": 80.0
                        }, 
                        "type": {
                            "coding": [
                                {
                                    "code": "normal", 
                                    "display": "Normal Range", 
                                    "system": "http://hl7.org/fhir/referencerange-meaning"
                                }
                            ], 
                            "text": "Normal Range"
                        }
                    }
                ], 
                "resourceType": "Observation", 
                "status": "unknown", 
                "subject": {
                    "reference": "Patient/ehealth-1796238"
                }, 
                "text": {
                    "div": "<div xmlns=\"http://www.w3.org/1999/xhtml\">2006-07-26: MCV RBC = 80 fL</div>", 
                    "status": "generated"
                }, 
                "valueQuantity": {
                    "code": "fL", 
                    "system": "http://unitsofmeasure.org", 
                    "unit": "fL", 
                    "value": 80.0
                }
            }
        }, 
        {
            "request": {
                "method": "PUT", 
                "url": "Observation/ehealth-1408-lab"
            }, 
            "resource": {
                "category": [
                    {
                        "coding": [
                            {
                                "code": "laboratory", 
                                "display": "Laboratory", 
                                "system": "http://hl7.org/fhir/observation-category"
                            }
                        ], 
                        "text": "Laboratory"
                    }
                ], 
                "code": {
                    "coding": [
                        {
                            "code": "2160-0", 
                            "display": "Creat SerPl-mCnc", 
                            "system": "http://loinc.org"
                        }
                    ], 
                    "text": "Creat SerPl-mCnc"
                }, 
                "effectiveDateTime": "2006-07-26", 
                "id": "ehealth-1408-lab", 
                "identifier": [
                    {
                        "system": "http://www.bmc.nl/zorgportal/identifiers/observations", 
                        "use": "official", 
                        "value": "ehealth-1408-lab"
                    }
                ], 
                "performer": [
                    {
                        "reference": "Practitioner/ehealth-Practitioner-7880378"
                    }
                ], 
                "referenceRange": [
                    {
                        "high": {
                            "code": "mg/dL", 
                            "system": "http://unitsofmeasure.org", 
                            "unit": "mg/dL", 
                            "value": 1.4
                        }, 
                        "low": {
                            "code": "mg/dL", 
                            "system": "http://unitsofmeasure.org", 
                            "unit": "mg/dL", 
                            "value": 0.8
                        }, 
                        "type": {
                            "coding": [
                                {
                                    "code": "normal", 
                                    "display": "Normal Range", 
                                    "system": "http://hl7.org/fhir/referencerange-meaning"
                                }
                            ], 
                            "text": "Normal Range"
                        }
                    }
                ], 
                "resourceType": "Observation", 
                "status": "unknown", 
                "subject": {
                    "reference": "Patient/ehealth-1796238"
                }, 
                "text": {
                    "div": "<div xmlns=\"http://www.w3.org/1999/xhtml\">2006-07-26: Creat SerPl-mCnc = 0.9 mg/dL</div>", 
                    "status": "generated"
                }, 
                "valueQuantity": {
                    "code": "mg/dL", 
                    "system": "http://unitsofmeasure.org", 
                    "unit": "mg/dL", 
                    "value": 0.9
                }
            }
        }, 
        {
            "request": {
                "method": "PUT", 
                "url": "Observation/ehealth-1409-lab"
            }, 
            "resource": {
                "category": [
                    {
                        "coding": [
                            {
                                "code": "laboratory", 
                                "display": "Laboratory", 
                                "system": "http://hl7.org/fhir/observation-category"
                            }
                        ], 
                        "text": "Laboratory"
                    }
                ], 
                "code": {
                    "coding": [
                        {
                            "code": "785-6", 
                            "display": "MCH RBC Qn Auto", 
                            "system": "http://loinc.org"
                        }
                    ], 
                    "text": "MCH RBC Qn Auto"
                }, 
                "effectiveDateTime": "2006-07-26", 
                "id": "ehealth-1409-lab", 
                "identifier": [
                    {
                        "system": "http://www.bmc.nl/zorgportal/identifiers/observations", 
                        "use": "official", 
                        "value": "ehealth-1409-lab"
                    }
                ], 
                "performer": [
                    {
                        "reference": "Practitioner/ehealth-Practitioner-7880378"
                    }
                ], 
                "referenceRange": [
                    {
                        "high": {
                            "code": "pg", 
                            "system": "http://unitsofmeasure.org", 
                            "unit": "pg", 
                            "value": 32.0
                        }, 
                        "low": {
                            "code": "pg", 
                            "system": "http://unitsofmeasure.org", 
                            "unit": "pg", 
                            "value": 26.0
                        }, 
                        "type": {
                            "coding": [
                                {
                                    "code": "normal", 
                                    "display": "Normal Range", 
                                    "system": "http://hl7.org/fhir/referencerange-meaning"
                                }
                            ], 
                            "text": "Normal Range"
                        }
                    }
                ], 
                "resourceType": "Observation", 
                "status": "unknown", 
                "subject": {
                    "reference": "Patient/ehealth-1796238"
                }, 
                "text": {
                    "div": "<div xmlns=\"http://www.w3.org/1999/xhtml\">2006-07-26: MCH RBC Qn Auto = 27.4 pg</div>", 
                    "status": "generated"
                }, 
                "valueQuantity": {
                    "code": "pg", 
                    "system": "http://unitsofmeasure.org", 
                    "unit": "pg", 
                    "value": 27.4
                }
            }
        }, 
        {
            "request": {
                "method": "PUT", 
                "url": "Observation/ehealth-1410-lab"
            }, 
            "resource": {
                "category": [
                    {
                        "coding": [
                            {
                                "code": "laboratory", 
                                "display": "Laboratory", 
                                "system": "http://hl7.org/fhir/observation-category"
                            }
                        ], 
                        "text": "Laboratory"
                    }
                ], 
                "code": {
                    "coding": [
                        {
                            "code": "786-4", 
                            "display": "MCHC RBC Auto-mCnc", 
                            "system": "http://loinc.org"
                        }
                    ], 
                    "text": "MCHC RBC Auto-mCnc"
                }, 
                "effectiveDateTime": "2006-07-26", 
                "id": "ehealth-1410-lab", 
                "identifier": [
                    {
                        "system": "http://www.bmc.nl/zorgportal/identifiers/observations", 
                        "use": "official", 
                        "value": "ehealth-1410-lab"
                    }
                ], 
                "performer": [
                    {
                        "reference": "Practitioner/ehealth-Practitioner-7880378"
                    }
                ], 
                "referenceRange": [
                    {
                        "high": {
                            "code": "g/dL", 
                            "system": "http://unitsofmeasure.org", 
                            "unit": "g/dL", 
                            "value": 36.0
                        }, 
                        "low": {
                            "code": "g/dL", 
                            "system": "http://unitsofmeasure.org", 
                            "unit": "g/dL", 
                            "value": 32.0
                        }, 
                        "type": {
                            "coding": [
                                {
                                    "code": "normal", 
                                    "display": "Normal Range", 
                                    "system": "http://hl7.org/fhir/referencerange-meaning"
                                }
                            ], 
                            "text": "Normal Range"
                        }
                    }
                ], 
                "resourceType": "Observation", 
                "status": "unknown", 
                "subject": {
                    "reference": "Patient/ehealth-1796238"
                }, 
                "text": {
                    "div": "<div xmlns=\"http://www.w3.org/1999/xhtml\">2006-07-26: MCHC RBC Auto-mCnc = 34.4 g/dL</div>", 
                    "status": "generated"
                }, 
                "valueQuantity": {
                    "code": "g/dL", 
                    "system": "http://unitsofmeasure.org", 
                    "unit": "g/dL", 
                    "value": 34.4
                }
            }
        }, 
        {
            "request": {
                "method": "PUT", 
                "url": "Observation/ehealth-1411-lab"
            }, 
            "resource": {
                "category": [
                    {
                        "coding": [
                            {
                                "code": "laboratory", 
                                "display": "Laboratory", 
                                "system": "http://hl7.org/fhir/observation-category"
                            }
                        ], 
                        "text": "Laboratory"
                    }
                ], 
                "code": {
                    "coding": [
                        {
                            "code": "17861-6", 
                            "display": "Calcium SerPl-mCnc", 
                            "system": "http://loinc.org"
                        }
                    ], 
                    "text": "Calcium SerPl-mCnc"
                }, 
                "effectiveDateTime": "2006-07-26", 
                "id": "ehealth-1411-lab", 
                "identifier": [
                    {
                        "system": "http://www.bmc.nl/zorgportal/identifiers/observations", 
                        "use": "official", 
                        "value": "ehealth-1411-lab"
                    }
                ], 
                "performer": [
                    {
                        "reference": "Practitioner/ehealth-Practitioner-7880378"
                    }
                ], 
                "referenceRange": [
                    {
                        "high": {
                            "code": "mg/dL", 
                            "system": "http://unitsofmeasure.org", 
                            "unit": "mg/dL", 
                            "value": 10.5
                        }, 
                        "low": {
                            "code": "mg/dL", 
                            "system": "http://unitsofmeasure.org", 
                            "unit": "mg/dL", 
                            "value": 8.5
                        }, 
                        "type": {
                            "coding": [
                                {
                                    "code": "normal", 
                                    "display": "Normal Range", 
                                    "system": "http://hl7.org/fhir/referencerange-meaning"
                                }
                            ], 
                            "text": "Normal Range"
                        }
                    }
                ], 
                "resourceType": "Observation", 
                "status": "unknown", 
                "subject": {
                    "reference": "Patient/ehealth-1796238"
                }, 
                "text": {
                    "div": "<div xmlns=\"http://www.w3.org/1999/xhtml\">2006-07-26: Calcium SerPl-mCnc = 8.8 mg/dL</div>", 
                    "status": "generated"
                }, 
                "valueQuantity": {
                    "code": "mg/dL", 
                    "system": "http://unitsofmeasure.org", 
                    "unit": "mg/dL", 
                    "value": 8.8
                }
            }
        }, 
        {
            "request": {
                "method": "PUT", 
                "url": "Observation/ehealth-1412-lab"
            }, 
            "resource": {
                "category": [
                    {
                        "coding": [
                            {
                                "code": "laboratory", 
                                "display": "Laboratory", 
                                "system": "http://hl7.org/fhir/observation-category"
                            }
                        ], 
                        "text": "Laboratory"
                    }
                ], 
                "code": {
                    "coding": [
                        {
                            "code": "5767-9", 
                            "display": "Appearance Ur", 
                            "system": "http://loinc.org"
                        }
                    ], 
                    "text": "Appearance Ur"
                }, 
                "effectiveDateTime": "2006-07-26", 
                "id": "ehealth-1412-lab", 
                "identifier": [
                    {
                        "system": "http://www.bmc.nl/zorgportal/identifiers/observations", 
                        "use": "official", 
                        "value": "ehealth-1412-lab"
                    }
                ], 
                "performer": [
                    {
                        "reference": "Practitioner/ehealth-Practitioner-7880378"
                    }
                ], 
                "resourceType": "Observation", 
                "status": "unknown", 
                "subject": {
                    "reference": "Patient/ehealth-1796238"
                }, 
                "text": {
                    "div": "<div xmlns=\"http://www.w3.org/1999/xhtml\">2006-07-26: Appearance Ur = Slightly Cloudy </div>", 
                    "status": "generated"
                }, 
                "valueString": "Slightly Cloudy"
            }
        }, 
        {
            "request": {
                "method": "PUT", 
                "url": "Observation/ehealth-1413-lab"
            }, 
            "resource": {
                "category": [
                    {
                        "coding": [
                            {
                                "code": "laboratory", 
                                "display": "Laboratory", 
                                "system": "http://hl7.org/fhir/observation-category"
                            }
                        ], 
                        "text": "Laboratory"
                    }
                ], 
                "code": {
                    "coding": [
                        {
                            "code": "5811-5", 
                            "display": "Sp Gr Ur Strip", 
                            "system": "http://loinc.org"
                        }
                    ], 
                    "text": "Sp Gr Ur Strip"
                }, 
                "effectiveDateTime": "2006-07-26", 
                "id": "ehealth-1413-lab", 
                "identifier": [
                    {
                        "system": "http://www.bmc.nl/zorgportal/identifiers/observations", 
                        "use": "official", 
                        "value": "ehealth-1413-lab"
                    }
                ], 
                "performer": [
                    {
                        "reference": "Practitioner/ehealth-Practitioner-7880378"
                    }
                ], 
                "resourceType": "Observation", 
                "status": "unknown", 
                "subject": {
                    "reference": "Patient/ehealth-1796238"
                }, 
                "text": {
                    "div": "<div xmlns=\"http://www.w3.org/1999/xhtml\">2006-07-26: Sp Gr Ur Strip = 1.014 </div>", 
                    "status": "generated"
                }, 
                "valueQuantity": {
                    "system": "http://unitsofmeasure.org", 
                    "value": 1.014
                }
            }
        }, 
        {
            "request": {
                "method": "PUT", 
                "url": "Observation/ehealth-1414-lab"
            }, 
            "resource": {
                "category": [
                    {
                        "coding": [
                            {
                                "code": "laboratory", 
                                "display": "Laboratory", 
                                "system": "http://hl7.org/fhir/observation-category"
                            }
                        ], 
                        "text": "Laboratory"
                    }
                ], 
                "code": {
                    "coding": [
                        {
                            "code": "5803-2", 
                            "display": "pH Ur Strip", 
                            "system": "http://loinc.org"
                        }
                    ], 
                    "text": "pH Ur Strip"
                }, 
                "effectiveDateTime": "2006-07-26", 
                "id": "ehealth-1414-lab", 
                "identifier": [
                    {
                        "system": "http://www.bmc.nl/zorgportal/identifiers/observations", 
                        "use": "official", 
                        "value": "ehealth-1414-lab"
                    }
                ], 
                "performer": [
                    {
                        "reference": "Practitioner/ehealth-Practitioner-7880378"
                    }
                ], 
                "referenceRange": [
                    {
                        "high": {
                            "code": "[pH]", 
                            "system": "http://unitsofmeasure.org", 
                            "unit": "[pH]", 
                            "value": 8.0
                        }, 
                        "low": {
                            "code": "[pH]", 
                            "system": "http://unitsofmeasure.org", 
                            "unit": "[pH]", 
                            "value": 5.0
                        }, 
                        "type": {
                            "coding": [
                                {
                                    "code": "normal", 
                                    "display": "Normal Range", 
                                    "system": "http://hl7.org/fhir/referencerange-meaning"
                                }
                            ], 
                            "text": "Normal Range"
                        }
                    }
                ], 
                "resourceType": "Observation", 
                "status": "unknown", 
                "subject": {
                    "reference": "Patient/ehealth-1796238"
                }, 
                "text": {
                    "div": "<div xmlns=\"http://www.w3.org/1999/xhtml\">2006-07-26: pH Ur Strip = 5.5 [pH]</div>", 
                    "status": "generated"
                }, 
                "valueQuantity": {
                    "code": "[pH]", 
                    "system": "http://unitsofmeasure.org", 
                    "unit": "[pH]", 
                    "value": 5.5
                }
            }
        }, 
        {
            "request": {
                "method": "PUT", 
                "url": "Observation/ehealth-1415-lab"
            }, 
            "resource": {
                "category": [
                    {
                        "coding": [
                            {
                                "code": "laboratory", 
                                "display": "Laboratory", 
                                "system": "http://hl7.org/fhir/observation-category"
                            }
                        ], 
                        "text": "Laboratory"
                    }
                ], 
                "code": {
                    "coding": [
                        {
                            "code": "5804-0", 
                            "display": "Prot Ur Strip-mCnc", 
                            "system": "http://loinc.org"
                        }
                    ], 
                    "text": "Prot Ur Strip-mCnc"
                }, 
                "effectiveDateTime": "2006-07-26", 
                "id": "ehealth-1415-lab", 
                "identifier": [
                    {
                        "system": "http://www.bmc.nl/zorgportal/identifiers/observations", 
                        "use": "official", 
                        "value": "ehealth-1415-lab"
                    }
                ], 
                "performer": [
                    {
                        "reference": "Practitioner/ehealth-Practitioner-7880378"
                    }
                ], 
                "referenceRange": [
                    {
                        "high": {
                            "code": "mg/dL", 
                            "system": "http://unitsofmeasure.org", 
                            "unit": "mg/dL", 
                            "value": 0.0
                        }, 
                        "low": {
                            "code": "mg/dL", 
                            "system": "http://unitsofmeasure.org", 
                            "unit": "mg/dL", 
                            "value": 0.0
                        }, 
                        "type": {
                            "coding": [
                                {
                                    "code": "normal", 
                                    "display": "Normal Range", 
                                    "system": "http://hl7.org/fhir/referencerange-meaning"
                                }
                            ], 
                            "text": "Normal Range"
                        }
                    }
                ], 
                "resourceType": "Observation", 
                "status": "unknown", 
                "subject": {
                    "reference": "Patient/ehealth-1796238"
                }, 
                "text": {
                    "div": "<div xmlns=\"http://www.w3.org/1999/xhtml\">2006-07-26: Prot Ur Strip-mCnc = 30 mg/dL</div>", 
                    "status": "generated"
                }, 
                "valueQuantity": {
                    "code": "mg/dL", 
                    "system": "http://unitsofmeasure.org", 
                    "unit": "mg/dL", 
                    "value": 30.0
                }
            }
        }, 
        {
            "request": {
                "method": "PUT", 
                "url": "Observation/ehealth-1416-lab"
            }, 
            "resource": {
                "category": [
                    {
                        "coding": [
                            {
                                "code": "laboratory", 
                                "display": "Laboratory", 
                                "system": "http://hl7.org/fhir/observation-category"
                            }
                        ], 
                        "text": "Laboratory"
                    }
                ], 
                "code": {
                    "coding": [
                        {
                            "code": "26515-7", 
                            "display": "Platelet # Bld", 
                            "system": "http://loinc.org"
                        }
                    ], 
                    "text": "Platelet # Bld"
                }, 
                "effectiveDateTime": "2006-07-26", 
                "id": "ehealth-1416-lab", 
                "identifier": [
                    {
                        "system": "http://www.bmc.nl/zorgportal/identifiers/observations", 
                        "use": "official", 
                        "value": "ehealth-1416-lab"
                    }
                ], 
                "performer": [
                    {
                        "reference": "Practitioner/ehealth-Practitioner-7880378"
                    }
                ], 
                "referenceRange": [
                    {
                        "high": {
                            "code": "10*3/uL", 
                            "system": "http://unitsofmeasure.org", 
                            "unit": "10*3/uL", 
                            "value": 450.0
                        }, 
                        "low": {
                            "code": "10*3/uL", 
                            "system": "http://unitsofmeasure.org", 
                            "unit": "10*3/uL", 
                            "value": 150.0
                        }, 
                        "type": {
                            "coding": [
                                {
                                    "code": "normal", 
                                    "display": "Normal Range", 
                                    "system": "http://hl7.org/fhir/referencerange-meaning"
                                }
                            ], 
                            "text": "Normal Range"
                        }
                    }
                ], 
                "resourceType": "Observation", 
                "status": "unknown", 
                "subject": {
                    "reference": "Patient/ehealth-1796238"
                }, 
                "text": {
                    "div": "<div xmlns=\"http://www.w3.org/1999/xhtml\">2006-07-26: Platelet # Bld = 316 10*3/uL</div>", 
                    "status": "generated"
                }, 
                "valueQuantity": {
                    "code": "10*3/uL", 
                    "system": "http://unitsofmeasure.org", 
                    "unit": "10*3/uL", 
                    "value": 316.0
                }
            }
        }, 
        {
            "request": {
                "method": "PUT", 
                "url": "Observation/ehealth-1417-lab"
            }, 
            "resource": {
                "category": [
                    {
                        "coding": [
                            {
                                "code": "laboratory", 
                                "display": "Laboratory", 
                                "system": "http://hl7.org/fhir/observation-category"
                            }
                        ], 
                        "text": "Laboratory"
                    }
                ], 
                "code": {
                    "coding": [
                        {
                            "code": "8247-9", 
                            "display": "Mucous Threads UrnS Ql Micro", 
                            "system": "http://loinc.org"
                        }
                    ], 
                    "text": "Mucous Threads UrnS Ql Micro"
                }, 
                "effectiveDateTime": "2006-07-26", 
                "extension": [
                    {
                        "url": "http://fhir-registry.smarthealthit.org/StructureDefinition/labs#value-range", 
                        "valueString": [
                            "None", 
                            "Rare", 
                            "Moderate", 
                            "Many"
                        ]
                    }
                ], 
                "id": "ehealth-1417-lab", 
                "identifier": [
                    {
                        "system": "http://www.bmc.nl/zorgportal/identifiers/observations", 
                        "use": "official", 
                        "value": "ehealth-1417-lab"
                    }
                ], 
                "performer": [
                    {
                        "reference": "Practitioner/ehealth-Practitioner-7880378"
                    }
                ], 
                "resourceType": "Observation", 
                "status": "unknown", 
                "subject": {
                    "reference": "Patient/ehealth-1796238"
                }, 
                "text": {
                    "div": "<div xmlns=\"http://www.w3.org/1999/xhtml\">2006-07-26: Mucous Threads UrnS Ql Micro = Rare </div>", 
                    "status": "generated"
                }, 
                "valueString": "Rare"
            }
        }, 
        {
            "request": {
                "method": "PUT", 
                "url": "Observation/ehealth-1418-lab"
            }, 
            "resource": {
                "category": [
                    {
                        "coding": [
                            {
                                "code": "laboratory", 
                                "display": "Laboratory", 
                                "system": "http://hl7.org/fhir/observation-category"
                            }
                        ], 
                        "text": "Laboratory"
                    }
                ], 
                "code": {
                    "coding": [
                        {
                            "code": "5769-5", 
                            "display": "Bacteria #/area UrnS HPF", 
                            "system": "http://loinc.org"
                        }
                    ], 
                    "text": "Bacteria #/area UrnS HPF"
                }, 
                "effectiveDateTime": "2006-07-26", 
                "id": "ehealth-1418-lab", 
                "identifier": [
                    {
                        "system": "http://www.bmc.nl/zorgportal/identifiers/observations", 
                        "use": "official", 
                        "value": "ehealth-1418-lab"
                    }
                ], 
                "performer": [
                    {
                        "reference": "Practitioner/ehealth-Practitioner-7880378"
                    }
                ], 
                "referenceRange": [
                    {
                        "high": {
                            "code": "/[HPF]", 
                            "system": "http://unitsofmeasure.org", 
                            "unit": "/[HPF]", 
                            "value": 0.0
                        }, 
                        "low": {
                            "code": "/[HPF]", 
                            "system": "http://unitsofmeasure.org", 
                            "unit": "/[HPF]", 
                            "value": 0.0
                        }, 
                        "type": {
                            "coding": [
                                {
                                    "code": "normal", 
                                    "display": "Normal Range", 
                                    "system": "http://hl7.org/fhir/referencerange-meaning"
                                }
                            ], 
                            "text": "Normal Range"
                        }
                    }
                ], 
                "resourceType": "Observation", 
                "status": "unknown", 
                "subject": {
                    "reference": "Patient/ehealth-1796238"
                }, 
                "text": {
                    "div": "<div xmlns=\"http://www.w3.org/1999/xhtml\">2006-07-26: Bacteria #/area UrnS HPF = 0 /[HPF]</div>", 
                    "status": "generated"
                }, 
                "valueQuantity": {
                    "code": "/[HPF]", 
                    "system": "http://unitsofmeasure.org", 
                    "unit": "/[HPF]", 
                    "value": 0.0
                }
            }
        }, 
        {
            "request": {
                "method": "PUT", 
                "url": "Observation/ehealth-1419-lab"
            }, 
            "resource": {
                "category": [
                    {
                        "coding": [
                            {
                                "code": "laboratory", 
                                "display": "Laboratory", 
                                "system": "http://hl7.org/fhir/observation-category"
                            }
                        ], 
                        "text": "Laboratory"
                    }
                ], 
                "code": {
                    "coding": [
                        {
                            "code": "26464-8", 
                            "display": "WBC # Bld", 
                            "system": "http://loinc.org"
                        }
                    ], 
                    "text": "WBC # Bld"
                }, 
                "effectiveDateTime": "2006-07-26", 
                "id": "ehealth-1419-lab", 
                "identifier": [
                    {
                        "system": "http://www.bmc.nl/zorgportal/identifiers/observations", 
                        "use": "official", 
                        "value": "ehealth-1419-lab"
                    }
                ], 
                "performer": [
                    {
                        "reference": "Practitioner/ehealth-Practitioner-7880378"
                    }
                ], 
                "referenceRange": [
                    {
                        "high": {
                            "code": "10*3/uL", 
                            "system": "http://unitsofmeasure.org", 
                            "unit": "10*3/uL", 
                            "value": 11.5
                        }, 
                        "low": {
                            "code": "10*3/uL", 
                            "system": "http://unitsofmeasure.org", 
                            "unit": "10*3/uL", 
                            "value": 4.5
                        }, 
                        "type": {
                            "coding": [
                                {
                                    "code": "normal", 
                                    "display": "Normal Range", 
                                    "system": "http://hl7.org/fhir/referencerange-meaning"
                                }
                            ], 
                            "text": "Normal Range"
                        }
                    }
                ], 
                "resourceType": "Observation", 
                "status": "unknown", 
                "subject": {
                    "reference": "Patient/ehealth-1796238"
                }, 
                "text": {
                    "div": "<div xmlns=\"http://www.w3.org/1999/xhtml\">2006-07-26: WBC # Bld = 9.7 10*3/uL</div>", 
                    "status": "generated"
                }, 
                "valueQuantity": {
                    "code": "10*3/uL", 
                    "system": "http://unitsofmeasure.org", 
                    "unit": "10*3/uL", 
                    "value": 9.7
                }
            }
        }, 
        {
            "request": {
                "method": "PUT", 
                "url": "Observation/ehealth-1420-lab"
            }, 
            "resource": {
                "category": [
                    {
                        "coding": [
                            {
                                "code": "laboratory", 
                                "display": "Laboratory", 
                                "system": "http://hl7.org/fhir/observation-category"
                            }
                        ], 
                        "text": "Laboratory"
                    }
                ], 
                "code": {
                    "coding": [
                        {
                            "code": "789-8", 
                            "display": "RBC # Bld Auto", 
                            "system": "http://loinc.org"
                        }
                    ], 
                    "text": "RBC # Bld Auto"
                }, 
                "effectiveDateTime": "2006-07-26", 
                "id": "ehealth-1420-lab", 
                "identifier": [
                    {
                        "system": "http://www.bmc.nl/zorgportal/identifiers/observations", 
                        "use": "official", 
                        "value": "ehealth-1420-lab"
                    }
                ], 
                "performer": [
                    {
                        "reference": "Practitioner/ehealth-Practitioner-7880378"
                    }
                ], 
                "referenceRange": [
                    {
                        "high": {
                            "code": "10*6/uL", 
                            "system": "http://unitsofmeasure.org", 
                            "unit": "10*6/uL", 
                            "value": 6.0
                        }, 
                        "low": {
                            "code": "10*6/uL", 
                            "system": "http://unitsofmeasure.org", 
                            "unit": "10*6/uL", 
                            "value": 4.6
                        }, 
                        "type": {
                            "coding": [
                                {
                                    "code": "normal", 
                                    "display": "Normal Range", 
                                    "system": "http://hl7.org/fhir/referencerange-meaning"
                                }
                            ], 
                            "text": "Normal Range"
                        }
                    }
                ], 
                "resourceType": "Observation", 
                "status": "unknown", 
                "subject": {
                    "reference": "Patient/ehealth-1796238"
                }, 
                "text": {
                    "div": "<div xmlns=\"http://www.w3.org/1999/xhtml\">2006-07-26: RBC # Bld Auto = 4.68 10*6/uL</div>", 
                    "status": "generated"
                }, 
                "valueQuantity": {
                    "code": "10*6/uL", 
                    "system": "http://unitsofmeasure.org", 
                    "unit": "10*6/uL", 
                    "value": 4.68
                }
            }
        }, 
        {
            "request": {
                "method": "PUT", 
                "url": "Observation/ehealth-1421-lab"
            }, 
            "resource": {
                "category": [
                    {
                        "coding": [
                            {
                                "code": "laboratory", 
                                "display": "Laboratory", 
                                "system": "http://hl7.org/fhir/observation-category"
                            }
                        ], 
                        "text": "Laboratory"
                    }
                ], 
                "code": {
                    "coding": [
                        {
                            "code": "2823-3", 
                            "display": "Potassium SerPl-sCnc", 
                            "system": "http://loinc.org"
                        }
                    ], 
                    "text": "Potassium SerPl-sCnc"
                }, 
                "effectiveDateTime": "2006-07-26", 
                "id": "ehealth-1421-lab", 
                "identifier": [
                    {
                        "system": "http://www.bmc.nl/zorgportal/identifiers/observations", 
                        "use": "official", 
                        "value": "ehealth-1421-lab"
                    }
                ], 
                "performer": [
                    {
                        "reference": "Practitioner/ehealth-Practitioner-7880378"
                    }
                ], 
                "referenceRange": [
                    {
                        "high": {
                            "code": "mmol/L", 
                            "system": "http://unitsofmeasure.org", 
                            "unit": "mmol/L", 
                            "value": 5.5
                        }, 
                        "low": {
                            "code": "mmol/L", 
                            "system": "http://unitsofmeasure.org", 
                            "unit": "mmol/L", 
                            "value": 3.5
                        }, 
                        "type": {
                            "coding": [
                                {
                                    "code": "normal", 
                                    "display": "Normal Range", 
                                    "system": "http://hl7.org/fhir/referencerange-meaning"
                                }
                            ], 
                            "text": "Normal Range"
                        }
                    }
                ], 
                "resourceType": "Observation", 
                "status": "unknown", 
                "subject": {
                    "reference": "Patient/ehealth-1796238"
                }, 
                "text": {
                    "div": "<div xmlns=\"http://www.w3.org/1999/xhtml\">2006-07-26: Potassium SerPl-sCnc = 4 mmol/L</div>", 
                    "status": "generated"
                }, 
                "valueQuantity": {
                    "code": "mmol/L", 
                    "system": "http://unitsofmeasure.org", 
                    "unit": "mmol/L", 
                    "value": 4.0
                }
            }
        }, 
        {
            "request": {
                "method": "PUT", 
                "url": "Observation/ehealth-1422-lab"
            }, 
            "resource": {
                "category": [
                    {
                        "coding": [
                            {
                                "code": "laboratory", 
                                "display": "Laboratory", 
                                "system": "http://hl7.org/fhir/observation-category"
                            }
                        ], 
                        "text": "Laboratory"
                    }
                ], 
                "code": {
                    "coding": [
                        {
                            "code": "2075-0", 
                            "display": "Chloride SerPl-sCnc", 
                            "system": "http://loinc.org"
                        }
                    ], 
                    "text": "Chloride SerPl-sCnc"
                }, 
                "effectiveDateTime": "2006-07-26", 
                "id": "ehealth-1422-lab", 
                "identifier": [
                    {
                        "system": "http://www.bmc.nl/zorgportal/identifiers/observations", 
                        "use": "official", 
                        "value": "ehealth-1422-lab"
                    }
                ], 
                "performer": [
                    {
                        "reference": "Practitioner/ehealth-Practitioner-7880378"
                    }
                ], 
                "referenceRange": [
                    {
                        "high": {
                            "code": "mmol/L", 
                            "system": "http://unitsofmeasure.org", 
                            "unit": "mmol/L", 
                            "value": 105.0
                        }, 
                        "low": {
                            "code": "mmol/L", 
                            "system": "http://unitsofmeasure.org", 
                            "unit": "mmol/L", 
                            "value": 95.0
                        }, 
                        "type": {
                            "coding": [
                                {
                                    "code": "normal", 
                                    "display": "Normal Range", 
                                    "system": "http://hl7.org/fhir/referencerange-meaning"
                                }
                            ], 
                            "text": "Normal Range"
                        }
                    }
                ], 
                "resourceType": "Observation", 
                "status": "unknown", 
                "subject": {
                    "reference": "Patient/ehealth-1796238"
                }, 
                "text": {
                    "div": "<div xmlns=\"http://www.w3.org/1999/xhtml\">2006-07-26: Chloride SerPl-sCnc = 100 mmol/L</div>", 
                    "status": "generated"
                }, 
                "valueQuantity": {
                    "code": "mmol/L", 
                    "system": "http://unitsofmeasure.org", 
                    "unit": "mmol/L", 
                    "value": 100.0
                }
            }
        }, 
        {
            "request": {
                "method": "PUT", 
                "url": "Observation/ehealth-1423-lab"
            }, 
            "resource": {
                "category": [
                    {
                        "coding": [
                            {
                                "code": "laboratory", 
                                "display": "Laboratory", 
                                "system": "http://hl7.org/fhir/observation-category"
                            }
                        ], 
                        "text": "Laboratory"
                    }
                ], 
                "code": {
                    "coding": [
                        {
                            "code": "2028-9", 
                            "display": "CO2 SerPl-sCnc", 
                            "system": "http://loinc.org"
                        }
                    ], 
                    "text": "CO2 SerPl-sCnc"
                }, 
                "effectiveDateTime": "2006-07-26", 
                "id": "ehealth-1423-lab", 
                "identifier": [
                    {
                        "system": "http://www.bmc.nl/zorgportal/identifiers/observations", 
                        "use": "official", 
                        "value": "ehealth-1423-lab"
                    }
                ], 
                "performer": [
                    {
                        "reference": "Practitioner/ehealth-Practitioner-7880378"
                    }
                ], 
                "referenceRange": [
                    {
                        "high": {
                            "code": "mmol/L", 
                            "system": "http://unitsofmeasure.org", 
                            "unit": "mmol/L", 
                            "value": 29.0
                        }, 
                        "low": {
                            "code": "mmol/L", 
                            "system": "http://unitsofmeasure.org", 
                            "unit": "mmol/L", 
                            "value": 22.0
                        }, 
                        "type": {
                            "coding": [
                                {
                                    "code": "normal", 
                                    "display": "Normal Range", 
                                    "system": "http://hl7.org/fhir/referencerange-meaning"
                                }
                            ], 
                            "text": "Normal Range"
                        }
                    }
                ], 
                "resourceType": "Observation", 
                "status": "unknown", 
                "subject": {
                    "reference": "Patient/ehealth-1796238"
                }, 
                "text": {
                    "div": "<div xmlns=\"http://www.w3.org/1999/xhtml\">2006-07-26: CO2 SerPl-sCnc = 29 mmol/L</div>", 
                    "status": "generated"
                }, 
                "valueQuantity": {
                    "code": "mmol/L", 
                    "system": "http://unitsofmeasure.org", 
                    "unit": "mmol/L", 
                    "value": 29.0
                }
            }
        }, 
        {
            "request": {
                "method": "PUT", 
                "url": "Observation/ehealth-1424-lab"
            }, 
            "resource": {
                "category": [
                    {
                        "coding": [
                            {
                                "code": "laboratory", 
                                "display": "Laboratory", 
                                "system": "http://hl7.org/fhir/observation-category"
                            }
                        ], 
                        "text": "Laboratory"
                    }
                ], 
                "code": {
                    "coding": [
                        {
                            "code": "2951-2", 
                            "display": "Sodium SerPl-sCnc", 
                            "system": "http://loinc.org"
                        }
                    ], 
                    "text": "Sodium SerPl-sCnc"
                }, 
                "effectiveDateTime": "2006-07-26", 
                "id": "ehealth-1424-lab", 
                "identifier": [
                    {
                        "system": "http://www.bmc.nl/zorgportal/identifiers/observations", 
                        "use": "official", 
                        "value": "ehealth-1424-lab"
                    }
                ], 
                "performer": [
                    {
                        "reference": "Practitioner/ehealth-Practitioner-7880378"
                    }
                ], 
                "referenceRange": [
                    {
                        "high": {
                            "code": "mmol/L", 
                            "system": "http://unitsofmeasure.org", 
                            "unit": "mmol/L", 
                            "value": 145.0
                        }, 
                        "low": {
                            "code": "mmol/L", 
                            "system": "http://unitsofmeasure.org", 
                            "unit": "mmol/L", 
                            "value": 135.0
                        }, 
                        "type": {
                            "coding": [
                                {
                                    "code": "normal", 
                                    "display": "Normal Range", 
                                    "system": "http://hl7.org/fhir/referencerange-meaning"
                                }
                            ], 
                            "text": "Normal Range"
                        }
                    }
                ], 
                "resourceType": "Observation", 
                "status": "unknown", 
                "subject": {
                    "reference": "Patient/ehealth-1796238"
                }, 
                "text": {
                    "div": "<div xmlns=\"http://www.w3.org/1999/xhtml\">2006-07-26: Sodium SerPl-sCnc = 136 mmol/L</div>", 
                    "status": "generated"
                }, 
                "valueQuantity": {
                    "code": "mmol/L", 
                    "system": "http://unitsofmeasure.org", 
                    "unit": "mmol/L", 
                    "value": 136.0
                }
            }
        }, 
        {
            "request": {
                "method": "PUT", 
                "url": "Observation/ehealth-1425-lab"
            }, 
            "resource": {
                "category": [
                    {
                        "coding": [
                            {
                                "code": "laboratory", 
                                "display": "Laboratory", 
                                "system": "http://hl7.org/fhir/observation-category"
                            }
                        ], 
                        "text": "Laboratory"
                    }
                ], 
                "code": {
                    "coding": [
                        {
                            "code": "28542-9", 
                            "display": "PMV Bld", 
                            "system": "http://loinc.org"
                        }
                    ], 
                    "text": "PMV Bld"
                }, 
                "effectiveDateTime": "2006-07-26", 
                "id": "ehealth-1425-lab", 
                "identifier": [
                    {
                        "system": "http://www.bmc.nl/zorgportal/identifiers/observations", 
                        "use": "official", 
                        "value": "ehealth-1425-lab"
                    }
                ], 
                "performer": [
                    {
                        "reference": "Practitioner/ehealth-Practitioner-7880378"
                    }
                ], 
                "referenceRange": [
                    {
                        "high": {
                            "code": "fL", 
                            "system": "http://unitsofmeasure.org", 
                            "unit": "fL", 
                            "value": 9.6
                        }, 
                        "low": {
                            "code": "fL", 
                            "system": "http://unitsofmeasure.org", 
                            "unit": "fL", 
                            "value": 6.3
                        }, 
                        "type": {
                            "coding": [
                                {
                                    "code": "normal", 
                                    "display": "Normal Range", 
                                    "system": "http://hl7.org/fhir/referencerange-meaning"
                                }
                            ], 
                            "text": "Normal Range"
                        }
                    }
                ], 
                "resourceType": "Observation", 
                "status": "unknown", 
                "subject": {
                    "reference": "Patient/ehealth-1796238"
                }, 
                "text": {
                    "div": "<div xmlns=\"http://www.w3.org/1999/xhtml\">2006-07-26: PMV Bld = 8.6 fL</div>", 
                    "status": "generated"
                }, 
                "valueQuantity": {
                    "code": "fL", 
                    "system": "http://unitsofmeasure.org", 
                    "unit": "fL", 
                    "value": 8.6
                }
            }
        }, 
        {
            "request": {
                "method": "PUT", 
                "url": "Observation/ehealth-1426-lab"
            }, 
            "resource": {
                "category": [
                    {
                        "coding": [
                            {
                                "code": "laboratory", 
                                "display": "Laboratory", 
                                "system": "http://hl7.org/fhir/observation-category"
                            }
                        ], 
                        "text": "Laboratory"
                    }
                ], 
                "code": {
                    "coding": [
                        {
                            "code": "30385-9", 
                            "display": "RDW RBC-Rto", 
                            "system": "http://loinc.org"
                        }
                    ], 
                    "text": "RDW RBC-Rto"
                }, 
                "effectiveDateTime": "2006-07-26", 
                "id": "ehealth-1426-lab", 
                "identifier": [
                    {
                        "system": "http://www.bmc.nl/zorgportal/identifiers/observations", 
                        "use": "official", 
                        "value": "ehealth-1426-lab"
                    }
                ], 
                "performer": [
                    {
                        "reference": "Practitioner/ehealth-Practitioner-7880378"
                    }
                ], 
                "referenceRange": [
                    {
                        "high": {
                            "code": "%", 
                            "system": "http://unitsofmeasure.org", 
                            "unit": "%", 
                            "value": 14.5
                        }, 
                        "low": {
                            "code": "%", 
                            "system": "http://unitsofmeasure.org", 
                            "unit": "%", 
                            "value": 11.5
                        }, 
                        "type": {
                            "coding": [
                                {
                                    "code": "normal", 
                                    "display": "Normal Range", 
                                    "system": "http://hl7.org/fhir/referencerange-meaning"
                                }
                            ], 
                            "text": "Normal Range"
                        }
                    }
                ], 
                "resourceType": "Observation", 
                "status": "unknown", 
                "subject": {
                    "reference": "Patient/ehealth-1796238"
                }, 
                "text": {
                    "div": "<div xmlns=\"http://www.w3.org/1999/xhtml\">2006-07-26: RDW RBC-Rto = 13.2 %</div>", 
                    "status": "generated"
                }, 
                "valueQuantity": {
                    "code": "%", 
                    "system": "http://unitsofmeasure.org", 
                    "unit": "%", 
                    "value": 13.2
                }
            }
        }, 
        {
            "request": {
                "method": "PUT", 
                "url": "Observation/ehealth-1427-lab"
            }, 
            "resource": {
                "category": [
                    {
                        "coding": [
                            {
                                "code": "laboratory", 
                                "display": "Laboratory", 
                                "system": "http://hl7.org/fhir/observation-category"
                            }
                        ], 
                        "text": "Laboratory"
                    }
                ], 
                "code": {
                    "coding": [
                        {
                            "code": "5821-4", 
                            "display": "WBC #/area UrnS HPF", 
                            "system": "http://loinc.org"
                        }
                    ], 
                    "text": "WBC #/area UrnS HPF"
                }, 
                "effectiveDateTime": "2006-07-26", 
                "id": "ehealth-1427-lab", 
                "identifier": [
                    {
                        "system": "http://www.bmc.nl/zorgportal/identifiers/observations", 
                        "use": "official", 
                        "value": "ehealth-1427-lab"
                    }
                ], 
                "performer": [
                    {
                        "reference": "Practitioner/ehealth-Practitioner-7880378"
                    }
                ], 
                "referenceRange": [
                    {
                        "high": {
                            "code": "/[HPF]", 
                            "system": "http://unitsofmeasure.org", 
                            "unit": "/[HPF]", 
                            "value": 5.0
                        }, 
                        "low": {
                            "code": "/[HPF]", 
                            "system": "http://unitsofmeasure.org", 
                            "unit": "/[HPF]", 
                            "value": 0.0
                        }, 
                        "type": {
                            "coding": [
                                {
                                    "code": "normal", 
                                    "display": "Normal Range", 
                                    "system": "http://hl7.org/fhir/referencerange-meaning"
                                }
                            ], 
                            "text": "Normal Range"
                        }
                    }
                ], 
                "resourceType": "Observation", 
                "status": "unknown", 
                "subject": {
                    "reference": "Patient/ehealth-1796238"
                }, 
                "text": {
                    "div": "<div xmlns=\"http://www.w3.org/1999/xhtml\">2006-07-26: WBC #/area UrnS HPF = 6 /[HPF]</div>", 
                    "status": "generated"
                }, 
                "valueQuantity": {
                    "code": "/[HPF]", 
                    "system": "http://unitsofmeasure.org", 
                    "unit": "/[HPF]", 
                    "value": 6.0
                }
            }
        }, 
        {
            "request": {
                "method": "PUT", 
                "url": "Observation/ehealth-1428-lab"
            }, 
            "resource": {
                "category": [
                    {
                        "coding": [
                            {
                                "code": "laboratory", 
                                "display": "Laboratory", 
                                "system": "http://hl7.org/fhir/observation-category"
                            }
                        ], 
                        "text": "Laboratory"
                    }
                ], 
                "code": {
                    "coding": [
                        {
                            "code": "13945-1", 
                            "display": "RBC #/area UrnS HPF", 
                            "system": "http://loinc.org"
                        }
                    ], 
                    "text": "RBC #/area UrnS HPF"
                }, 
                "effectiveDateTime": "2006-07-26", 
                "id": "ehealth-1428-lab", 
                "identifier": [
                    {
                        "system": "http://www.bmc.nl/zorgportal/identifiers/observations", 
                        "use": "official", 
                        "value": "ehealth-1428-lab"
                    }
                ], 
                "performer": [
                    {
                        "reference": "Practitioner/ehealth-Practitioner-7880378"
                    }
                ], 
                "referenceRange": [
                    {
                        "high": {
                            "code": "/[HPF]", 
                            "system": "http://unitsofmeasure.org", 
                            "unit": "/[HPF]", 
                            "value": 2.0
                        }, 
                        "low": {
                            "code": "/[HPF]", 
                            "system": "http://unitsofmeasure.org", 
                            "unit": "/[HPF]", 
                            "value": 0.0
                        }, 
                        "type": {
                            "coding": [
                                {
                                    "code": "normal", 
                                    "display": "Normal Range", 
                                    "system": "http://hl7.org/fhir/referencerange-meaning"
                                }
                            ], 
                            "text": "Normal Range"
                        }
                    }
                ], 
                "resourceType": "Observation", 
                "status": "unknown", 
                "subject": {
                    "reference": "Patient/ehealth-1796238"
                }, 
                "text": {
                    "div": "<div xmlns=\"http://www.w3.org/1999/xhtml\">2006-07-26: RBC #/area UrnS HPF = 63 /[HPF]</div>", 
                    "status": "generated"
                }, 
                "valueQuantity": {
                    "code": "/[HPF]", 
                    "system": "http://unitsofmeasure.org", 
                    "unit": "/[HPF]", 
                    "value": 63.0
                }
            }
        }, 
        {
            "request": {
                "method": "PUT", 
                "url": "Observation/ehealth-1429-lab"
            }, 
            "resource": {
                "category": [
                    {
                        "coding": [
                            {
                                "code": "laboratory", 
                                "display": "Laboratory", 
                                "system": "http://hl7.org/fhir/observation-category"
                            }
                        ], 
                        "text": "Laboratory"
                    }
                ], 
                "code": {
                    "coding": [
                        {
                            "code": "2345-7", 
                            "display": "Glucose SerPl-mCnc", 
                            "system": "http://loinc.org"
                        }
                    ], 
                    "text": "Glucose SerPl-mCnc"
                }, 
                "effectiveDateTime": "2006-07-26", 
                "id": "ehealth-1429-lab", 
                "identifier": [
                    {
                        "system": "http://www.bmc.nl/zorgportal/identifiers/observations", 
                        "use": "official", 
                        "value": "ehealth-1429-lab"
                    }
                ], 
                "performer": [
                    {
                        "reference": "Practitioner/ehealth-Practitioner-7880378"
                    }
                ], 
                "referenceRange": [
                    {
                        "high": {
                            "code": "mg/dL", 
                            "system": "http://unitsofmeasure.org", 
                            "unit": "mg/dL", 
                            "value": 109.0
                        }, 
                        "low": {
                            "code": "mg/dL", 
                            "system": "http://unitsofmeasure.org", 
                            "unit": "mg/dL", 
                            "value": 70.0
                        }, 
                        "type": {
                            "coding": [
                                {
                                    "code": "normal", 
                                    "display": "Normal Range", 
                                    "system": "http://hl7.org/fhir/referencerange-meaning"
                                }
                            ], 
                            "text": "Normal Range"
                        }
                    }
                ], 
                "resourceType": "Observation", 
                "status": "unknown", 
                "subject": {
                    "reference": "Patient/ehealth-1796238"
                }, 
                "text": {
                    "div": "<div xmlns=\"http://www.w3.org/1999/xhtml\">2006-07-26: Glucose SerPl-mCnc = 119 mg/dL</div>", 
                    "status": "generated"
                }, 
                "valueQuantity": {
                    "code": "mg/dL", 
                    "system": "http://unitsofmeasure.org", 
                    "unit": "mg/dL", 
                    "value": 119.0
                }
            }
        }, 
        {
            "request": {
                "method": "PUT", 
                "url": "Observation/ehealth-1430-lab"
            }, 
            "resource": {
                "category": [
                    {
                        "coding": [
                            {
                                "code": "laboratory", 
                                "display": "Laboratory", 
                                "system": "http://hl7.org/fhir/observation-category"
                            }
                        ], 
                        "text": "Laboratory"
                    }
                ], 
                "code": {
                    "coding": [
                        {
                            "code": "3094-0", 
                            "display": "BUN SerPl-mCnc", 
                            "system": "http://loinc.org"
                        }
                    ], 
                    "text": "BUN SerPl-mCnc"
                }, 
                "effectiveDateTime": "2006-07-26", 
                "id": "ehealth-1430-lab", 
                "identifier": [
                    {
                        "system": "http://www.bmc.nl/zorgportal/identifiers/observations", 
                        "use": "official", 
                        "value": "ehealth-1430-lab"
                    }
                ], 
                "performer": [
                    {
                        "reference": "Practitioner/ehealth-Practitioner-7880378"
                    }
                ], 
                "referenceRange": [
                    {
                        "high": {
                            "code": "mg/dL", 
                            "system": "http://unitsofmeasure.org", 
                            "unit": "mg/dL", 
                            "value": 20.0
                        }, 
                        "low": {
                            "code": "mg/dL", 
                            "system": "http://unitsofmeasure.org", 
                            "unit": "mg/dL", 
                            "value": 5.0
                        }, 
                        "type": {
                            "coding": [
                                {
                                    "code": "normal", 
                                    "display": "Normal Range", 
                                    "system": "http://hl7.org/fhir/referencerange-meaning"
                                }
                            ], 
                            "text": "Normal Range"
                        }
                    }
                ], 
                "resourceType": "Observation", 
                "status": "unknown", 
                "subject": {
                    "reference": "Patient/ehealth-1796238"
                }, 
                "text": {
                    "div": "<div xmlns=\"http://www.w3.org/1999/xhtml\">2006-07-26: BUN SerPl-mCnc = 12 mg/dL</div>", 
                    "status": "generated"
                }, 
                "valueQuantity": {
                    "code": "mg/dL", 
                    "system": "http://unitsofmeasure.org", 
                    "unit": "mg/dL", 
                    "value": 12.0
                }
            }
        }, 
        {
            "request": {
                "method": "PUT", 
                "url": "Observation/ehealth-1431-lab"
            }, 
            "resource": {
                "category": [
                    {
                        "coding": [
                            {
                                "code": "laboratory", 
                                "display": "Laboratory", 
                                "system": "http://hl7.org/fhir/observation-category"
                            }
                        ], 
                        "text": "Laboratory"
                    }
                ], 
                "code": {
                    "coding": [
                        {
                            "code": "718-7", 
                            "display": "Hgb Bld-mCnc", 
                            "system": "http://loinc.org"
                        }
                    ], 
                    "text": "Hgb Bld-mCnc"
                }, 
                "effectiveDateTime": "2006-07-26", 
                "id": "ehealth-1431-lab", 
                "identifier": [
                    {
                        "system": "http://www.bmc.nl/zorgportal/identifiers/observations", 
                        "use": "official", 
                        "value": "ehealth-1431-lab"
                    }
                ], 
                "performer": [
                    {
                        "reference": "Practitioner/ehealth-Practitioner-7880378"
                    }
                ], 
                "referenceRange": [
                    {
                        "high": {
                            "code": "g/dL", 
                            "system": "http://unitsofmeasure.org", 
                            "unit": "g/dL", 
                            "value": 18.0
                        }, 
                        "low": {
                            "code": "g/dL", 
                            "system": "http://unitsofmeasure.org", 
                            "unit": "g/dL", 
                            "value": 14.0
                        }, 
                        "type": {
                            "coding": [
                                {
                                    "code": "normal", 
                                    "display": "Normal Range", 
                                    "system": "http://hl7.org/fhir/referencerange-meaning"
                                }
                            ], 
                            "text": "Normal Range"
                        }
                    }
                ], 
                "resourceType": "Observation", 
                "status": "unknown", 
                "subject": {
                    "reference": "Patient/ehealth-1796238"
                }, 
                "text": {
                    "div": "<div xmlns=\"http://www.w3.org/1999/xhtml\">2006-07-26: Hgb Bld-mCnc = 12.8 g/dL</div>", 
                    "status": "generated"
                }, 
                "valueQuantity": {
                    "code": "g/dL", 
                    "system": "http://unitsofmeasure.org", 
                    "unit": "g/dL", 
                    "value": 12.8
                }
            }
        }, 
        {
            "request": {
                "method": "PUT", 
                "url": "Observation/ehealth-1432-lab"
            }, 
            "resource": {
                "category": [
                    {
                        "coding": [
                            {
                                "code": "laboratory", 
                                "display": "Laboratory", 
                                "system": "http://hl7.org/fhir/observation-category"
                            }
                        ], 
                        "text": "Laboratory"
                    }
                ], 
                "code": {
                    "coding": [
                        {
                            "code": "2339-0", 
                            "display": "Glucose Bld-mCnc", 
                            "system": "http://loinc.org"
                        }
                    ], 
                    "text": "Glucose Bld-mCnc"
                }, 
                "effectiveDateTime": "2006-07-26", 
                "id": "ehealth-1432-lab", 
                "identifier": [
                    {
                        "system": "http://www.bmc.nl/zorgportal/identifiers/observations", 
                        "use": "official", 
                        "value": "ehealth-1432-lab"
                    }
                ], 
                "performer": [
                    {
                        "reference": "Practitioner/ehealth-Practitioner-7880378"
                    }
                ], 
                "referenceRange": [
                    {
                        "high": {
                            "code": "mg/dL", 
                            "system": "http://unitsofmeasure.org", 
                            "unit": "mg/dL", 
                            "value": 109.0
                        }, 
                        "low": {
                            "code": "mg/dL", 
                            "system": "http://unitsofmeasure.org", 
                            "unit": "mg/dL", 
                            "value": 70.0
                        }, 
                        "type": {
                            "coding": [
                                {
                                    "code": "normal", 
                                    "display": "Normal Range", 
                                    "system": "http://hl7.org/fhir/referencerange-meaning"
                                }
                            ], 
                            "text": "Normal Range"
                        }
                    }
                ], 
                "resourceType": "Observation", 
                "status": "unknown", 
                "subject": {
                    "reference": "Patient/ehealth-1796238"
                }, 
                "text": {
                    "div": "<div xmlns=\"http://www.w3.org/1999/xhtml\">2006-07-26: Glucose Bld-mCnc = 90 mg/dL</div>", 
                    "status": "generated"
                }, 
                "valueQuantity": {
                    "code": "mg/dL", 
                    "system": "http://unitsofmeasure.org", 
                    "unit": "mg/dL", 
                    "value": 90.0
                }
            }
        }, 
        {
            "request": {
                "method": "PUT", 
                "url": "Observation/ehealth-1433-lab"
            }, 
            "resource": {
                "category": [
                    {
                        "coding": [
                            {
                                "code": "laboratory", 
                                "display": "Laboratory", 
                                "system": "http://hl7.org/fhir/observation-category"
                            }
                        ], 
                        "text": "Laboratory"
                    }
                ], 
                "code": {
                    "coding": [
                        {
                            "code": "2339-0", 
                            "display": "Glucose Bld-mCnc", 
                            "system": "http://loinc.org"
                        }
                    ], 
                    "text": "Glucose Bld-mCnc"
                }, 
                "effectiveDateTime": "2006-07-26", 
                "id": "ehealth-1433-lab", 
                "identifier": [
                    {
                        "system": "http://www.bmc.nl/zorgportal/identifiers/observations", 
                        "use": "official", 
                        "value": "ehealth-1433-lab"
                    }
                ], 
                "performer": [
                    {
                        "reference": "Practitioner/ehealth-Practitioner-7880378"
                    }
                ], 
                "referenceRange": [
                    {
                        "high": {
                            "code": "mg/dL", 
                            "system": "http://unitsofmeasure.org", 
                            "unit": "mg/dL", 
                            "value": 109.0
                        }, 
                        "low": {
                            "code": "mg/dL", 
                            "system": "http://unitsofmeasure.org", 
                            "unit": "mg/dL", 
                            "value": 70.0
                        }, 
                        "type": {
                            "coding": [
                                {
                                    "code": "normal", 
                                    "display": "Normal Range", 
                                    "system": "http://hl7.org/fhir/referencerange-meaning"
                                }
                            ], 
                            "text": "Normal Range"
                        }
                    }
                ], 
                "resourceType": "Observation", 
                "status": "unknown", 
                "subject": {
                    "reference": "Patient/ehealth-1796238"
                }, 
                "text": {
                    "div": "<div xmlns=\"http://www.w3.org/1999/xhtml\">2006-07-26: Glucose Bld-mCnc = 234 mg/dL</div>", 
                    "status": "generated"
                }, 
                "valueQuantity": {
                    "code": "mg/dL", 
                    "system": "http://unitsofmeasure.org", 
                    "unit": "mg/dL", 
                    "value": 234.0
                }
            }
        }, 
        {
            "request": {
                "method": "PUT", 
                "url": "Observation/ehealth-1434-lab"
            }, 
            "resource": {
                "category": [
                    {
                        "coding": [
                            {
                                "code": "laboratory", 
                                "display": "Laboratory", 
                                "system": "http://hl7.org/fhir/observation-category"
                            }
                        ], 
                        "text": "Laboratory"
                    }
                ], 
                "code": {
                    "coding": [
                        {
                            "code": "2339-0", 
                            "display": "Glucose Bld-mCnc", 
                            "system": "http://loinc.org"
                        }
                    ], 
                    "text": "Glucose Bld-mCnc"
                }, 
                "effectiveDateTime": "2006-07-26", 
                "id": "ehealth-1434-lab", 
                "identifier": [
                    {
                        "system": "http://www.bmc.nl/zorgportal/identifiers/observations", 
                        "use": "official", 
                        "value": "ehealth-1434-lab"
                    }
                ], 
                "performer": [
                    {
                        "reference": "Practitioner/ehealth-Practitioner-7880378"
                    }
                ], 
                "referenceRange": [
                    {
                        "high": {
                            "code": "mg/dL", 
                            "system": "http://unitsofmeasure.org", 
                            "unit": "mg/dL", 
                            "value": 109.0
                        }, 
                        "low": {
                            "code": "mg/dL", 
                            "system": "http://unitsofmeasure.org", 
                            "unit": "mg/dL", 
                            "value": 70.0
                        }, 
                        "type": {
                            "coding": [
                                {
                                    "code": "normal", 
                                    "display": "Normal Range", 
                                    "system": "http://hl7.org/fhir/referencerange-meaning"
                                }
                            ], 
                            "text": "Normal Range"
                        }
                    }
                ], 
                "resourceType": "Observation", 
                "status": "unknown", 
                "subject": {
                    "reference": "Patient/ehealth-1796238"
                }, 
                "text": {
                    "div": "<div xmlns=\"http://www.w3.org/1999/xhtml\">2006-07-26: Glucose Bld-mCnc = 115 mg/dL</div>", 
                    "status": "generated"
                }, 
                "valueQuantity": {
                    "code": "mg/dL", 
                    "system": "http://unitsofmeasure.org", 
                    "unit": "mg/dL", 
                    "value": 115.0
                }
            }
        }, 
        {
            "request": {
                "method": "PUT", 
                "url": "Observation/ehealth-1435-lab"
            }, 
            "resource": {
                "category": [
                    {
                        "coding": [
                            {
                                "code": "laboratory", 
                                "display": "Laboratory", 
                                "system": "http://hl7.org/fhir/observation-category"
                            }
                        ], 
                        "text": "Laboratory"
                    }
                ], 
                "code": {
                    "coding": [
                        {
                            "code": "12258-0", 
                            "display": "Squamous UrnS Ql HPF", 
                            "system": "http://loinc.org"
                        }
                    ], 
                    "text": "Squamous UrnS Ql HPF"
                }, 
                "effectiveDateTime": "2006-07-26", 
                "extension": [
                    {
                        "url": "http://fhir-registry.smarthealthit.org/StructureDefinition/labs#value-range", 
                        "valueString": [
                            "None", 
                            "Few", 
                            "Moderate", 
                            "Many"
                        ]
                    }
                ], 
                "id": "ehealth-1435-lab", 
                "identifier": [
                    {
                        "system": "http://www.bmc.nl/zorgportal/identifiers/observations", 
                        "use": "official", 
                        "value": "ehealth-1435-lab"
                    }
                ], 
                "performer": [
                    {
                        "reference": "Practitioner/ehealth-Practitioner-7880378"
                    }
                ], 
                "resourceType": "Observation", 
                "status": "unknown", 
                "subject": {
                    "reference": "Patient/ehealth-1796238"
                }, 
                "text": {
                    "div": "<div xmlns=\"http://www.w3.org/1999/xhtml\">2006-07-26: Squamous UrnS Ql HPF = None </div>", 
                    "status": "generated"
                }, 
                "valueString": "None"
            }
        }, 
        {
            "request": {
                "method": "PUT", 
                "url": "Observation/ehealth-1436-lab"
            }, 
            "resource": {
                "category": [
                    {
                        "coding": [
                            {
                                "code": "laboratory", 
                                "display": "Laboratory", 
                                "system": "http://hl7.org/fhir/observation-category"
                            }
                        ], 
                        "text": "Laboratory"
                    }
                ], 
                "code": {
                    "coding": [
                        {
                            "code": "5802-4", 
                            "display": "Nitrite Ur Ql Strip", 
                            "system": "http://loinc.org"
                        }
                    ], 
                    "text": "Nitrite Ur Ql Strip"
                }, 
                "effectiveDateTime": "2006-07-26", 
                "extension": [
                    {
                        "url": "http://fhir-registry.smarthealthit.org/StructureDefinition/labs#value-range", 
                        "valueString": [
                            "Negative", 
                            "Positive"
                        ]
                    }
                ], 
                "id": "ehealth-1436-lab", 
                "identifier": [
                    {
                        "system": "http://www.bmc.nl/zorgportal/identifiers/observations", 
                        "use": "official", 
                        "value": "ehealth-1436-lab"
                    }
                ], 
                "performer": [
                    {
                        "reference": "Practitioner/ehealth-Practitioner-7880378"
                    }
                ], 
                "resourceType": "Observation", 
                "status": "unknown", 
                "subject": {
                    "reference": "Patient/ehealth-1796238"
                }, 
                "text": {
                    "div": "<div xmlns=\"http://www.w3.org/1999/xhtml\">2006-07-26: Nitrite Ur Ql Strip = Negative </div>", 
                    "status": "generated"
                }, 
                "valueString": "Negative"
            }
        }, 
        {
            "request": {
                "method": "PUT", 
                "url": "Observation/ehealth-1437-lab"
            }, 
            "resource": {
                "category": [
                    {
                        "coding": [
                            {
                                "code": "laboratory", 
                                "display": "Laboratory", 
                                "system": "http://hl7.org/fhir/observation-category"
                            }
                        ], 
                        "text": "Laboratory"
                    }
                ], 
                "code": {
                    "coding": [
                        {
                            "code": "10466-1", 
                            "display": "Anion Gap3 SerPl-sCnc", 
                            "system": "http://loinc.org"
                        }
                    ], 
                    "text": "Anion Gap3 SerPl-sCnc"
                }, 
                "effectiveDateTime": "2006-07-26", 
                "id": "ehealth-1437-lab", 
                "identifier": [
                    {
                        "system": "http://www.bmc.nl/zorgportal/identifiers/observations", 
                        "use": "official", 
                        "value": "ehealth-1437-lab"
                    }
                ], 
                "performer": [
                    {
                        "reference": "Practitioner/ehealth-Practitioner-7880378"
                    }
                ], 
                "referenceRange": [
                    {
                        "high": {
                            "code": "mmol/L", 
                            "system": "http://unitsofmeasure.org", 
                            "unit": "mmol/L", 
                            "value": 0.0
                        }, 
                        "low": {
                            "code": "mmol/L", 
                            "system": "http://unitsofmeasure.org", 
                            "unit": "mmol/L", 
                            "value": 0.0
                        }, 
                        "type": {
                            "coding": [
                                {
                                    "code": "normal", 
                                    "display": "Normal Range", 
                                    "system": "http://hl7.org/fhir/referencerange-meaning"
                                }
                            ], 
                            "text": "Normal Range"
                        }
                    }
                ], 
                "resourceType": "Observation", 
                "status": "unknown", 
                "subject": {
                    "reference": "Patient/ehealth-1796238"
                }, 
                "text": {
                    "div": "<div xmlns=\"http://www.w3.org/1999/xhtml\">2006-07-26: Anion Gap3 SerPl-sCnc = 7 mmol/L</div>", 
                    "status": "generated"
                }, 
                "valueQuantity": {
                    "code": "mmol/L", 
                    "system": "http://unitsofmeasure.org", 
                    "unit": "mmol/L", 
                    "value": 7.0
                }
            }
        }, 
        {
            "request": {
                "method": "PUT", 
                "url": "Observation/ehealth-1438-lab"
            }, 
            "resource": {
                "category": [
                    {
                        "coding": [
                            {
                                "code": "laboratory", 
                                "display": "Laboratory", 
                                "system": "http://hl7.org/fhir/observation-category"
                            }
                        ], 
                        "text": "Laboratory"
                    }
                ], 
                "code": {
                    "coding": [
                        {
                            "code": "30428-7", 
                            "display": "MCV RBC", 
                            "system": "http://loinc.org"
                        }
                    ], 
                    "text": "MCV RBC"
                }, 
                "effectiveDateTime": "2006-07-27", 
                "id": "ehealth-1438-lab", 
                "identifier": [
                    {
                        "system": "http://www.bmc.nl/zorgportal/identifiers/observations", 
                        "use": "official", 
                        "value": "ehealth-1438-lab"
                    }
                ], 
                "performer": [
                    {
                        "reference": "Practitioner/ehealth-Practitioner-7880378"
                    }
                ], 
                "referenceRange": [
                    {
                        "high": {
                            "code": "fL", 
                            "system": "http://unitsofmeasure.org", 
                            "unit": "fL", 
                            "value": 94.0
                        }, 
                        "low": {
                            "code": "fL", 
                            "system": "http://unitsofmeasure.org", 
                            "unit": "fL", 
                            "value": 80.0
                        }, 
                        "type": {
                            "coding": [
                                {
                                    "code": "normal", 
                                    "display": "Normal Range", 
                                    "system": "http://hl7.org/fhir/referencerange-meaning"
                                }
                            ], 
                            "text": "Normal Range"
                        }
                    }
                ], 
                "resourceType": "Observation", 
                "status": "unknown", 
                "subject": {
                    "reference": "Patient/ehealth-1796238"
                }, 
                "text": {
                    "div": "<div xmlns=\"http://www.w3.org/1999/xhtml\">2006-07-27: MCV RBC = 79 fL</div>", 
                    "status": "generated"
                }, 
                "valueQuantity": {
                    "code": "fL", 
                    "system": "http://unitsofmeasure.org", 
                    "unit": "fL", 
                    "value": 79.0
                }
            }
        }, 
        {
            "request": {
                "method": "PUT", 
                "url": "Observation/ehealth-1439-lab"
            }, 
            "resource": {
                "category": [
                    {
                        "coding": [
                            {
                                "code": "laboratory", 
                                "display": "Laboratory", 
                                "system": "http://hl7.org/fhir/observation-category"
                            }
                        ], 
                        "text": "Laboratory"
                    }
                ], 
                "code": {
                    "coding": [
                        {
                            "code": "10466-1", 
                            "display": "Anion Gap3 SerPl-sCnc", 
                            "system": "http://loinc.org"
                        }
                    ], 
                    "text": "Anion Gap3 SerPl-sCnc"
                }, 
                "effectiveDateTime": "2006-07-27", 
                "id": "ehealth-1439-lab", 
                "identifier": [
                    {
                        "system": "http://www.bmc.nl/zorgportal/identifiers/observations", 
                        "use": "official", 
                        "value": "ehealth-1439-lab"
                    }
                ], 
                "performer": [
                    {
                        "reference": "Practitioner/ehealth-Practitioner-7880378"
                    }
                ], 
                "referenceRange": [
                    {
                        "high": {
                            "code": "mmol/L", 
                            "system": "http://unitsofmeasure.org", 
                            "unit": "mmol/L", 
                            "value": 0.0
                        }, 
                        "low": {
                            "code": "mmol/L", 
                            "system": "http://unitsofmeasure.org", 
                            "unit": "mmol/L", 
                            "value": 0.0
                        }, 
                        "type": {
                            "coding": [
                                {
                                    "code": "normal", 
                                    "display": "Normal Range", 
                                    "system": "http://hl7.org/fhir/referencerange-meaning"
                                }
                            ], 
                            "text": "Normal Range"
                        }
                    }
                ], 
                "resourceType": "Observation", 
                "status": "unknown", 
                "subject": {
                    "reference": "Patient/ehealth-1796238"
                }, 
                "text": {
                    "div": "<div xmlns=\"http://www.w3.org/1999/xhtml\">2006-07-27: Anion Gap3 SerPl-sCnc = 11 mmol/L</div>", 
                    "status": "generated"
                }, 
                "valueQuantity": {
                    "code": "mmol/L", 
                    "system": "http://unitsofmeasure.org", 
                    "unit": "mmol/L", 
                    "value": 11.0
                }
            }
        }, 
        {
            "request": {
                "method": "PUT", 
                "url": "Observation/ehealth-1440-lab"
            }, 
            "resource": {
                "category": [
                    {
                        "coding": [
                            {
                                "code": "laboratory", 
                                "display": "Laboratory", 
                                "system": "http://hl7.org/fhir/observation-category"
                            }
                        ], 
                        "text": "Laboratory"
                    }
                ], 
                "code": {
                    "coding": [
                        {
                            "code": "785-6", 
                            "display": "MCH RBC Qn Auto", 
                            "system": "http://loinc.org"
                        }
                    ], 
                    "text": "MCH RBC Qn Auto"
                }, 
                "effectiveDateTime": "2006-07-27", 
                "id": "ehealth-1440-lab", 
                "identifier": [
                    {
                        "system": "http://www.bmc.nl/zorgportal/identifiers/observations", 
                        "use": "official", 
                        "value": "ehealth-1440-lab"
                    }
                ], 
                "performer": [
                    {
                        "reference": "Practitioner/ehealth-Practitioner-7880378"
                    }
                ], 
                "referenceRange": [
                    {
                        "high": {
                            "code": "pg", 
                            "system": "http://unitsofmeasure.org", 
                            "unit": "pg", 
                            "value": 32.0
                        }, 
                        "low": {
                            "code": "pg", 
                            "system": "http://unitsofmeasure.org", 
                            "unit": "pg", 
                            "value": 26.0
                        }, 
                        "type": {
                            "coding": [
                                {
                                    "code": "normal", 
                                    "display": "Normal Range", 
                                    "system": "http://hl7.org/fhir/referencerange-meaning"
                                }
                            ], 
                            "text": "Normal Range"
                        }
                    }
                ], 
                "resourceType": "Observation", 
                "status": "unknown", 
                "subject": {
                    "reference": "Patient/ehealth-1796238"
                }, 
                "text": {
                    "div": "<div xmlns=\"http://www.w3.org/1999/xhtml\">2006-07-27: MCH RBC Qn Auto = 26.8 pg</div>", 
                    "status": "generated"
                }, 
                "valueQuantity": {
                    "code": "pg", 
                    "system": "http://unitsofmeasure.org", 
                    "unit": "pg", 
                    "value": 26.8
                }
            }
        }, 
        {
            "request": {
                "method": "PUT", 
                "url": "Observation/ehealth-1441-lab"
            }, 
            "resource": {
                "category": [
                    {
                        "coding": [
                            {
                                "code": "laboratory", 
                                "display": "Laboratory", 
                                "system": "http://hl7.org/fhir/observation-category"
                            }
                        ], 
                        "text": "Laboratory"
                    }
                ], 
                "code": {
                    "coding": [
                        {
                            "code": "786-4", 
                            "display": "MCHC RBC Auto-mCnc", 
                            "system": "http://loinc.org"
                        }
                    ], 
                    "text": "MCHC RBC Auto-mCnc"
                }, 
                "effectiveDateTime": "2006-07-27", 
                "id": "ehealth-1441-lab", 
                "identifier": [
                    {
                        "system": "http://www.bmc.nl/zorgportal/identifiers/observations", 
                        "use": "official", 
                        "value": "ehealth-1441-lab"
                    }
                ], 
                "performer": [
                    {
                        "reference": "Practitioner/ehealth-Practitioner-7880378"
                    }
                ], 
                "referenceRange": [
                    {
                        "high": {
                            "code": "g/dL", 
                            "system": "http://unitsofmeasure.org", 
                            "unit": "g/dL", 
                            "value": 36.0
                        }, 
                        "low": {
                            "code": "g/dL", 
                            "system": "http://unitsofmeasure.org", 
                            "unit": "g/dL", 
                            "value": 32.0
                        }, 
                        "type": {
                            "coding": [
                                {
                                    "code": "normal", 
                                    "display": "Normal Range", 
                                    "system": "http://hl7.org/fhir/referencerange-meaning"
                                }
                            ], 
                            "text": "Normal Range"
                        }
                    }
                ], 
                "resourceType": "Observation", 
                "status": "unknown", 
                "subject": {
                    "reference": "Patient/ehealth-1796238"
                }, 
                "text": {
                    "div": "<div xmlns=\"http://www.w3.org/1999/xhtml\">2006-07-27: MCHC RBC Auto-mCnc = 33.9 g/dL</div>", 
                    "status": "generated"
                }, 
                "valueQuantity": {
                    "code": "g/dL", 
                    "system": "http://unitsofmeasure.org", 
                    "unit": "g/dL", 
                    "value": 33.9
                }
            }
        }, 
        {
            "request": {
                "method": "PUT", 
                "url": "Observation/ehealth-1442-lab"
            }, 
            "resource": {
                "category": [
                    {
                        "coding": [
                            {
                                "code": "laboratory", 
                                "display": "Laboratory", 
                                "system": "http://hl7.org/fhir/observation-category"
                            }
                        ], 
                        "text": "Laboratory"
                    }
                ], 
                "code": {
                    "coding": [
                        {
                            "code": "17861-6", 
                            "display": "Calcium SerPl-mCnc", 
                            "system": "http://loinc.org"
                        }
                    ], 
                    "text": "Calcium SerPl-mCnc"
                }, 
                "effectiveDateTime": "2006-07-27", 
                "id": "ehealth-1442-lab", 
                "identifier": [
                    {
                        "system": "http://www.bmc.nl/zorgportal/identifiers/observations", 
                        "use": "official", 
                        "value": "ehealth-1442-lab"
                    }
                ], 
                "performer": [
                    {
                        "reference": "Practitioner/ehealth-Practitioner-7880378"
                    }
                ], 
                "referenceRange": [
                    {
                        "high": {
                            "code": "mg/dL", 
                            "system": "http://unitsofmeasure.org", 
                            "unit": "mg/dL", 
                            "value": 10.5
                        }, 
                        "low": {
                            "code": "mg/dL", 
                            "system": "http://unitsofmeasure.org", 
                            "unit": "mg/dL", 
                            "value": 8.5
                        }, 
                        "type": {
                            "coding": [
                                {
                                    "code": "normal", 
                                    "display": "Normal Range", 
                                    "system": "http://hl7.org/fhir/referencerange-meaning"
                                }
                            ], 
                            "text": "Normal Range"
                        }
                    }
                ], 
                "resourceType": "Observation", 
                "status": "unknown", 
                "subject": {
                    "reference": "Patient/ehealth-1796238"
                }, 
                "text": {
                    "div": "<div xmlns=\"http://www.w3.org/1999/xhtml\">2006-07-27: Calcium SerPl-mCnc = 8.6 mg/dL</div>", 
                    "status": "generated"
                }, 
                "valueQuantity": {
                    "code": "mg/dL", 
                    "system": "http://unitsofmeasure.org", 
                    "unit": "mg/dL", 
                    "value": 8.6
                }
            }
        }, 
        {
            "request": {
                "method": "PUT", 
                "url": "Observation/ehealth-1443-lab"
            }, 
            "resource": {
                "category": [
                    {
                        "coding": [
                            {
                                "code": "laboratory", 
                                "display": "Laboratory", 
                                "system": "http://hl7.org/fhir/observation-category"
                            }
                        ], 
                        "text": "Laboratory"
                    }
                ], 
                "code": {
                    "coding": [
                        {
                            "code": "26515-7", 
                            "display": "Platelet # Bld", 
                            "system": "http://loinc.org"
                        }
                    ], 
                    "text": "Platelet # Bld"
                }, 
                "effectiveDateTime": "2006-07-27", 
                "id": "ehealth-1443-lab", 
                "identifier": [
                    {
                        "system": "http://www.bmc.nl/zorgportal/identifiers/observations", 
                        "use": "official", 
                        "value": "ehealth-1443-lab"
                    }
                ], 
                "performer": [
                    {
                        "reference": "Practitioner/ehealth-Practitioner-7880378"
                    }
                ], 
                "referenceRange": [
                    {
                        "high": {
                            "code": "10*3/uL", 
                            "system": "http://unitsofmeasure.org", 
                            "unit": "10*3/uL", 
                            "value": 450.0
                        }, 
                        "low": {
                            "code": "10*3/uL", 
                            "system": "http://unitsofmeasure.org", 
                            "unit": "10*3/uL", 
                            "value": 150.0
                        }, 
                        "type": {
                            "coding": [
                                {
                                    "code": "normal", 
                                    "display": "Normal Range", 
                                    "system": "http://hl7.org/fhir/referencerange-meaning"
                                }
                            ], 
                            "text": "Normal Range"
                        }
                    }
                ], 
                "resourceType": "Observation", 
                "status": "unknown", 
                "subject": {
                    "reference": "Patient/ehealth-1796238"
                }, 
                "text": {
                    "div": "<div xmlns=\"http://www.w3.org/1999/xhtml\">2006-07-27: Platelet # Bld = 336 10*3/uL</div>", 
                    "status": "generated"
                }, 
                "valueQuantity": {
                    "code": "10*3/uL", 
                    "system": "http://unitsofmeasure.org", 
                    "unit": "10*3/uL", 
                    "value": 336.0
                }
            }
        }, 
        {
            "request": {
                "method": "PUT", 
                "url": "Observation/ehealth-1444-lab"
            }, 
            "resource": {
                "category": [
                    {
                        "coding": [
                            {
                                "code": "laboratory", 
                                "display": "Laboratory", 
                                "system": "http://hl7.org/fhir/observation-category"
                            }
                        ], 
                        "text": "Laboratory"
                    }
                ], 
                "code": {
                    "coding": [
                        {
                            "code": "26464-8", 
                            "display": "WBC # Bld", 
                            "system": "http://loinc.org"
                        }
                    ], 
                    "text": "WBC # Bld"
                }, 
                "effectiveDateTime": "2006-07-27", 
                "id": "ehealth-1444-lab", 
                "identifier": [
                    {
                        "system": "http://www.bmc.nl/zorgportal/identifiers/observations", 
                        "use": "official", 
                        "value": "ehealth-1444-lab"
                    }
                ], 
                "performer": [
                    {
                        "reference": "Practitioner/ehealth-Practitioner-7880378"
                    }
                ], 
                "referenceRange": [
                    {
                        "high": {
                            "code": "10*3/uL", 
                            "system": "http://unitsofmeasure.org", 
                            "unit": "10*3/uL", 
                            "value": 11.5
                        }, 
                        "low": {
                            "code": "10*3/uL", 
                            "system": "http://unitsofmeasure.org", 
                            "unit": "10*3/uL", 
                            "value": 4.5
                        }, 
                        "type": {
                            "coding": [
                                {
                                    "code": "normal", 
                                    "display": "Normal Range", 
                                    "system": "http://hl7.org/fhir/referencerange-meaning"
                                }
                            ], 
                            "text": "Normal Range"
                        }
                    }
                ], 
                "resourceType": "Observation", 
                "status": "unknown", 
                "subject": {
                    "reference": "Patient/ehealth-1796238"
                }, 
                "text": {
                    "div": "<div xmlns=\"http://www.w3.org/1999/xhtml\">2006-07-27: WBC # Bld = 8.7 10*3/uL</div>", 
                    "status": "generated"
                }, 
                "valueQuantity": {
                    "code": "10*3/uL", 
                    "system": "http://unitsofmeasure.org", 
                    "unit": "10*3/uL", 
                    "value": 8.7
                }
            }
        }, 
        {
            "request": {
                "method": "PUT", 
                "url": "Observation/ehealth-1445-lab"
            }, 
            "resource": {
                "category": [
                    {
                        "coding": [
                            {
                                "code": "laboratory", 
                                "display": "Laboratory", 
                                "system": "http://hl7.org/fhir/observation-category"
                            }
                        ], 
                        "text": "Laboratory"
                    }
                ], 
                "code": {
                    "coding": [
                        {
                            "code": "789-8", 
                            "display": "RBC # Bld Auto", 
                            "system": "http://loinc.org"
                        }
                    ], 
                    "text": "RBC # Bld Auto"
                }, 
                "effectiveDateTime": "2006-07-27", 
                "id": "ehealth-1445-lab", 
                "identifier": [
                    {
                        "system": "http://www.bmc.nl/zorgportal/identifiers/observations", 
                        "use": "official", 
                        "value": "ehealth-1445-lab"
                    }
                ], 
                "performer": [
                    {
                        "reference": "Practitioner/ehealth-Practitioner-7880378"
                    }
                ], 
                "referenceRange": [
                    {
                        "high": {
                            "code": "10*6/uL", 
                            "system": "http://unitsofmeasure.org", 
                            "unit": "10*6/uL", 
                            "value": 6.0
                        }, 
                        "low": {
                            "code": "10*6/uL", 
                            "system": "http://unitsofmeasure.org", 
                            "unit": "10*6/uL", 
                            "value": 4.6
                        }, 
                        "type": {
                            "coding": [
                                {
                                    "code": "normal", 
                                    "display": "Normal Range", 
                                    "system": "http://hl7.org/fhir/referencerange-meaning"
                                }
                            ], 
                            "text": "Normal Range"
                        }
                    }
                ], 
                "resourceType": "Observation", 
                "status": "unknown", 
                "subject": {
                    "reference": "Patient/ehealth-1796238"
                }, 
                "text": {
                    "div": "<div xmlns=\"http://www.w3.org/1999/xhtml\">2006-07-27: RBC # Bld Auto = 4.72 10*6/uL</div>", 
                    "status": "generated"
                }, 
                "valueQuantity": {
                    "code": "10*6/uL", 
                    "system": "http://unitsofmeasure.org", 
                    "unit": "10*6/uL", 
                    "value": 4.72
                }
            }
        }, 
        {
            "request": {
                "method": "PUT", 
                "url": "Observation/ehealth-1446-lab"
            }, 
            "resource": {
                "category": [
                    {
                        "coding": [
                            {
                                "code": "laboratory", 
                                "display": "Laboratory", 
                                "system": "http://hl7.org/fhir/observation-category"
                            }
                        ], 
                        "text": "Laboratory"
                    }
                ], 
                "code": {
                    "coding": [
                        {
                            "code": "2823-3", 
                            "display": "Potassium SerPl-sCnc", 
                            "system": "http://loinc.org"
                        }
                    ], 
                    "text": "Potassium SerPl-sCnc"
                }, 
                "effectiveDateTime": "2006-07-27", 
                "id": "ehealth-1446-lab", 
                "identifier": [
                    {
                        "system": "http://www.bmc.nl/zorgportal/identifiers/observations", 
                        "use": "official", 
                        "value": "ehealth-1446-lab"
                    }
                ], 
                "performer": [
                    {
                        "reference": "Practitioner/ehealth-Practitioner-7880378"
                    }
                ], 
                "referenceRange": [
                    {
                        "high": {
                            "code": "mmol/L", 
                            "system": "http://unitsofmeasure.org", 
                            "unit": "mmol/L", 
                            "value": 5.5
                        }, 
                        "low": {
                            "code": "mmol/L", 
                            "system": "http://unitsofmeasure.org", 
                            "unit": "mmol/L", 
                            "value": 3.5
                        }, 
                        "type": {
                            "coding": [
                                {
                                    "code": "normal", 
                                    "display": "Normal Range", 
                                    "system": "http://hl7.org/fhir/referencerange-meaning"
                                }
                            ], 
                            "text": "Normal Range"
                        }
                    }
                ], 
                "resourceType": "Observation", 
                "status": "unknown", 
                "subject": {
                    "reference": "Patient/ehealth-1796238"
                }, 
                "text": {
                    "div": "<div xmlns=\"http://www.w3.org/1999/xhtml\">2006-07-27: Potassium SerPl-sCnc = 3.7 mmol/L</div>", 
                    "status": "generated"
                }, 
                "valueQuantity": {
                    "code": "mmol/L", 
                    "system": "http://unitsofmeasure.org", 
                    "unit": "mmol/L", 
                    "value": 3.7
                }
            }
        }, 
        {
            "request": {
                "method": "PUT", 
                "url": "Observation/ehealth-1447-lab"
            }, 
            "resource": {
                "category": [
                    {
                        "coding": [
                            {
                                "code": "laboratory", 
                                "display": "Laboratory", 
                                "system": "http://hl7.org/fhir/observation-category"
                            }
                        ], 
                        "text": "Laboratory"
                    }
                ], 
                "code": {
                    "coding": [
                        {
                            "code": "2075-0", 
                            "display": "Chloride SerPl-sCnc", 
                            "system": "http://loinc.org"
                        }
                    ], 
                    "text": "Chloride SerPl-sCnc"
                }, 
                "effectiveDateTime": "2006-07-27", 
                "id": "ehealth-1447-lab", 
                "identifier": [
                    {
                        "system": "http://www.bmc.nl/zorgportal/identifiers/observations", 
                        "use": "official", 
                        "value": "ehealth-1447-lab"
                    }
                ], 
                "performer": [
                    {
                        "reference": "Practitioner/ehealth-Practitioner-7880378"
                    }
                ], 
                "referenceRange": [
                    {
                        "high": {
                            "code": "mmol/L", 
                            "system": "http://unitsofmeasure.org", 
                            "unit": "mmol/L", 
                            "value": 105.0
                        }, 
                        "low": {
                            "code": "mmol/L", 
                            "system": "http://unitsofmeasure.org", 
                            "unit": "mmol/L", 
                            "value": 95.0
                        }, 
                        "type": {
                            "coding": [
                                {
                                    "code": "normal", 
                                    "display": "Normal Range", 
                                    "system": "http://hl7.org/fhir/referencerange-meaning"
                                }
                            ], 
                            "text": "Normal Range"
                        }
                    }
                ], 
                "resourceType": "Observation", 
                "status": "unknown", 
                "subject": {
                    "reference": "Patient/ehealth-1796238"
                }, 
                "text": {
                    "div": "<div xmlns=\"http://www.w3.org/1999/xhtml\">2006-07-27: Chloride SerPl-sCnc = 95 mmol/L</div>", 
                    "status": "generated"
                }, 
                "valueQuantity": {
                    "code": "mmol/L", 
                    "system": "http://unitsofmeasure.org", 
                    "unit": "mmol/L", 
                    "value": 95.0
                }
            }
        }, 
        {
            "request": {
                "method": "PUT", 
                "url": "Observation/ehealth-1448-lab"
            }, 
            "resource": {
                "category": [
                    {
                        "coding": [
                            {
                                "code": "laboratory", 
                                "display": "Laboratory", 
                                "system": "http://hl7.org/fhir/observation-category"
                            }
                        ], 
                        "text": "Laboratory"
                    }
                ], 
                "code": {
                    "coding": [
                        {
                            "code": "2028-9", 
                            "display": "CO2 SerPl-sCnc", 
                            "system": "http://loinc.org"
                        }
                    ], 
                    "text": "CO2 SerPl-sCnc"
                }, 
                "effectiveDateTime": "2006-07-27", 
                "id": "ehealth-1448-lab", 
                "identifier": [
                    {
                        "system": "http://www.bmc.nl/zorgportal/identifiers/observations", 
                        "use": "official", 
                        "value": "ehealth-1448-lab"
                    }
                ], 
                "performer": [
                    {
                        "reference": "Practitioner/ehealth-Practitioner-7880378"
                    }
                ], 
                "referenceRange": [
                    {
                        "high": {
                            "code": "mmol/L", 
                            "system": "http://unitsofmeasure.org", 
                            "unit": "mmol/L", 
                            "value": 29.0
                        }, 
                        "low": {
                            "code": "mmol/L", 
                            "system": "http://unitsofmeasure.org", 
                            "unit": "mmol/L", 
                            "value": 22.0
                        }, 
                        "type": {
                            "coding": [
                                {
                                    "code": "normal", 
                                    "display": "Normal Range", 
                                    "system": "http://hl7.org/fhir/referencerange-meaning"
                                }
                            ], 
                            "text": "Normal Range"
                        }
                    }
                ], 
                "resourceType": "Observation", 
                "status": "unknown", 
                "subject": {
                    "reference": "Patient/ehealth-1796238"
                }, 
                "text": {
                    "div": "<div xmlns=\"http://www.w3.org/1999/xhtml\">2006-07-27: CO2 SerPl-sCnc = 28 mmol/L</div>", 
                    "status": "generated"
                }, 
                "valueQuantity": {
                    "code": "mmol/L", 
                    "system": "http://unitsofmeasure.org", 
                    "unit": "mmol/L", 
                    "value": 28.0
                }
            }
        }, 
        {
            "request": {
                "method": "PUT", 
                "url": "Observation/ehealth-1449-lab"
            }, 
            "resource": {
                "category": [
                    {
                        "coding": [
                            {
                                "code": "laboratory", 
                                "display": "Laboratory", 
                                "system": "http://hl7.org/fhir/observation-category"
                            }
                        ], 
                        "text": "Laboratory"
                    }
                ], 
                "code": {
                    "coding": [
                        {
                            "code": "2951-2", 
                            "display": "Sodium SerPl-sCnc", 
                            "system": "http://loinc.org"
                        }
                    ], 
                    "text": "Sodium SerPl-sCnc"
                }, 
                "effectiveDateTime": "2006-07-27", 
                "id": "ehealth-1449-lab", 
                "identifier": [
                    {
                        "system": "http://www.bmc.nl/zorgportal/identifiers/observations", 
                        "use": "official", 
                        "value": "ehealth-1449-lab"
                    }
                ], 
                "performer": [
                    {
                        "reference": "Practitioner/ehealth-Practitioner-7880378"
                    }
                ], 
                "referenceRange": [
                    {
                        "high": {
                            "code": "mmol/L", 
                            "system": "http://unitsofmeasure.org", 
                            "unit": "mmol/L", 
                            "value": 145.0
                        }, 
                        "low": {
                            "code": "mmol/L", 
                            "system": "http://unitsofmeasure.org", 
                            "unit": "mmol/L", 
                            "value": 135.0
                        }, 
                        "type": {
                            "coding": [
                                {
                                    "code": "normal", 
                                    "display": "Normal Range", 
                                    "system": "http://hl7.org/fhir/referencerange-meaning"
                                }
                            ], 
                            "text": "Normal Range"
                        }
                    }
                ], 
                "resourceType": "Observation", 
                "status": "unknown", 
                "subject": {
                    "reference": "Patient/ehealth-1796238"
                }, 
                "text": {
                    "div": "<div xmlns=\"http://www.w3.org/1999/xhtml\">2006-07-27: Sodium SerPl-sCnc = 134 mmol/L</div>", 
                    "status": "generated"
                }, 
                "valueQuantity": {
                    "code": "mmol/L", 
                    "system": "http://unitsofmeasure.org", 
                    "unit": "mmol/L", 
                    "value": 134.0
                }
            }
        }, 
        {
            "request": {
                "method": "PUT", 
                "url": "Observation/ehealth-1450-lab"
            }, 
            "resource": {
                "category": [
                    {
                        "coding": [
                            {
                                "code": "laboratory", 
                                "display": "Laboratory", 
                                "system": "http://hl7.org/fhir/observation-category"
                            }
                        ], 
                        "text": "Laboratory"
                    }
                ], 
                "code": {
                    "coding": [
                        {
                            "code": "28542-9", 
                            "display": "PMV Bld", 
                            "system": "http://loinc.org"
                        }
                    ], 
                    "text": "PMV Bld"
                }, 
                "effectiveDateTime": "2006-07-27", 
                "id": "ehealth-1450-lab", 
                "identifier": [
                    {
                        "system": "http://www.bmc.nl/zorgportal/identifiers/observations", 
                        "use": "official", 
                        "value": "ehealth-1450-lab"
                    }
                ], 
                "performer": [
                    {
                        "reference": "Practitioner/ehealth-Practitioner-7880378"
                    }
                ], 
                "referenceRange": [
                    {
                        "high": {
                            "code": "fL", 
                            "system": "http://unitsofmeasure.org", 
                            "unit": "fL", 
                            "value": 9.6
                        }, 
                        "low": {
                            "code": "fL", 
                            "system": "http://unitsofmeasure.org", 
                            "unit": "fL", 
                            "value": 6.3
                        }, 
                        "type": {
                            "coding": [
                                {
                                    "code": "normal", 
                                    "display": "Normal Range", 
                                    "system": "http://hl7.org/fhir/referencerange-meaning"
                                }
                            ], 
                            "text": "Normal Range"
                        }
                    }
                ], 
                "resourceType": "Observation", 
                "status": "unknown", 
                "subject": {
                    "reference": "Patient/ehealth-1796238"
                }, 
                "text": {
                    "div": "<div xmlns=\"http://www.w3.org/1999/xhtml\">2006-07-27: PMV Bld = 8.9 fL</div>", 
                    "status": "generated"
                }, 
                "valueQuantity": {
                    "code": "fL", 
                    "system": "http://unitsofmeasure.org", 
                    "unit": "fL", 
                    "value": 8.9
                }
            }
        }, 
        {
            "request": {
                "method": "PUT", 
                "url": "Observation/ehealth-1451-lab"
            }, 
            "resource": {
                "category": [
                    {
                        "coding": [
                            {
                                "code": "laboratory", 
                                "display": "Laboratory", 
                                "system": "http://hl7.org/fhir/observation-category"
                            }
                        ], 
                        "text": "Laboratory"
                    }
                ], 
                "code": {
                    "coding": [
                        {
                            "code": "30385-9", 
                            "display": "RDW RBC-Rto", 
                            "system": "http://loinc.org"
                        }
                    ], 
                    "text": "RDW RBC-Rto"
                }, 
                "effectiveDateTime": "2006-07-27", 
                "id": "ehealth-1451-lab", 
                "identifier": [
                    {
                        "system": "http://www.bmc.nl/zorgportal/identifiers/observations", 
                        "use": "official", 
                        "value": "ehealth-1451-lab"
                    }
                ], 
                "performer": [
                    {
                        "reference": "Practitioner/ehealth-Practitioner-7880378"
                    }
                ], 
                "referenceRange": [
                    {
                        "high": {
                            "code": "%", 
                            "system": "http://unitsofmeasure.org", 
                            "unit": "%", 
                            "value": 14.5
                        }, 
                        "low": {
                            "code": "%", 
                            "system": "http://unitsofmeasure.org", 
                            "unit": "%", 
                            "value": 11.5
                        }, 
                        "type": {
                            "coding": [
                                {
                                    "code": "normal", 
                                    "display": "Normal Range", 
                                    "system": "http://hl7.org/fhir/referencerange-meaning"
                                }
                            ], 
                            "text": "Normal Range"
                        }
                    }
                ], 
                "resourceType": "Observation", 
                "status": "unknown", 
                "subject": {
                    "reference": "Patient/ehealth-1796238"
                }, 
                "text": {
                    "div": "<div xmlns=\"http://www.w3.org/1999/xhtml\">2006-07-27: RDW RBC-Rto = 13.6 %</div>", 
                    "status": "generated"
                }, 
                "valueQuantity": {
                    "code": "%", 
                    "system": "http://unitsofmeasure.org", 
                    "unit": "%", 
                    "value": 13.6
                }
            }
        }, 
        {
            "request": {
                "method": "PUT", 
                "url": "Observation/ehealth-1452-lab"
            }, 
            "resource": {
                "category": [
                    {
                        "coding": [
                            {
                                "code": "laboratory", 
                                "display": "Laboratory", 
                                "system": "http://hl7.org/fhir/observation-category"
                            }
                        ], 
                        "text": "Laboratory"
                    }
                ], 
                "code": {
                    "coding": [
                        {
                            "code": "2345-7", 
                            "display": "Glucose SerPl-mCnc", 
                            "system": "http://loinc.org"
                        }
                    ], 
                    "text": "Glucose SerPl-mCnc"
                }, 
                "effectiveDateTime": "2006-07-27", 
                "id": "ehealth-1452-lab", 
                "identifier": [
                    {
                        "system": "http://www.bmc.nl/zorgportal/identifiers/observations", 
                        "use": "official", 
                        "value": "ehealth-1452-lab"
                    }
                ], 
                "performer": [
                    {
                        "reference": "Practitioner/ehealth-Practitioner-7880378"
                    }
                ], 
                "referenceRange": [
                    {
                        "high": {
                            "code": "mg/dL", 
                            "system": "http://unitsofmeasure.org", 
                            "unit": "mg/dL", 
                            "value": 109.0
                        }, 
                        "low": {
                            "code": "mg/dL", 
                            "system": "http://unitsofmeasure.org", 
                            "unit": "mg/dL", 
                            "value": 70.0
                        }, 
                        "type": {
                            "coding": [
                                {
                                    "code": "normal", 
                                    "display": "Normal Range", 
                                    "system": "http://hl7.org/fhir/referencerange-meaning"
                                }
                            ], 
                            "text": "Normal Range"
                        }
                    }
                ], 
                "resourceType": "Observation", 
                "status": "unknown", 
                "subject": {
                    "reference": "Patient/ehealth-1796238"
                }, 
                "text": {
                    "div": "<div xmlns=\"http://www.w3.org/1999/xhtml\">2006-07-27: Glucose SerPl-mCnc = 122 mg/dL</div>", 
                    "status": "generated"
                }, 
                "valueQuantity": {
                    "code": "mg/dL", 
                    "system": "http://unitsofmeasure.org", 
                    "unit": "mg/dL", 
                    "value": 122.0
                }
            }
        }, 
        {
            "request": {
                "method": "PUT", 
                "url": "Observation/ehealth-1453-lab"
            }, 
            "resource": {
                "category": [
                    {
                        "coding": [
                            {
                                "code": "laboratory", 
                                "display": "Laboratory", 
                                "system": "http://hl7.org/fhir/observation-category"
                            }
                        ], 
                        "text": "Laboratory"
                    }
                ], 
                "code": {
                    "coding": [
                        {
                            "code": "3094-0", 
                            "display": "BUN SerPl-mCnc", 
                            "system": "http://loinc.org"
                        }
                    ], 
                    "text": "BUN SerPl-mCnc"
                }, 
                "effectiveDateTime": "2006-07-27", 
                "id": "ehealth-1453-lab", 
                "identifier": [
                    {
                        "system": "http://www.bmc.nl/zorgportal/identifiers/observations", 
                        "use": "official", 
                        "value": "ehealth-1453-lab"
                    }
                ], 
                "performer": [
                    {
                        "reference": "Practitioner/ehealth-Practitioner-7880378"
                    }
                ], 
                "referenceRange": [
                    {
                        "high": {
                            "code": "mg/dL", 
                            "system": "http://unitsofmeasure.org", 
                            "unit": "mg/dL", 
                            "value": 20.0
                        }, 
                        "low": {
                            "code": "mg/dL", 
                            "system": "http://unitsofmeasure.org", 
                            "unit": "mg/dL", 
                            "value": 5.0
                        }, 
                        "type": {
                            "coding": [
                                {
                                    "code": "normal", 
                                    "display": "Normal Range", 
                                    "system": "http://hl7.org/fhir/referencerange-meaning"
                                }
                            ], 
                            "text": "Normal Range"
                        }
                    }
                ], 
                "resourceType": "Observation", 
                "status": "unknown", 
                "subject": {
                    "reference": "Patient/ehealth-1796238"
                }, 
                "text": {
                    "div": "<div xmlns=\"http://www.w3.org/1999/xhtml\">2006-07-27: BUN SerPl-mCnc = 12 mg/dL</div>", 
                    "status": "generated"
                }, 
                "valueQuantity": {
                    "code": "mg/dL", 
                    "system": "http://unitsofmeasure.org", 
                    "unit": "mg/dL", 
                    "value": 12.0
                }
            }
        }, 
        {
            "request": {
                "method": "PUT", 
                "url": "Observation/ehealth-1454-lab"
            }, 
            "resource": {
                "category": [
                    {
                        "coding": [
                            {
                                "code": "laboratory", 
                                "display": "Laboratory", 
                                "system": "http://hl7.org/fhir/observation-category"
                            }
                        ], 
                        "text": "Laboratory"
                    }
                ], 
                "code": {
                    "coding": [
                        {
                            "code": "718-7", 
                            "display": "Hgb Bld-mCnc", 
                            "system": "http://loinc.org"
                        }
                    ], 
                    "text": "Hgb Bld-mCnc"
                }, 
                "effectiveDateTime": "2006-07-27", 
                "id": "ehealth-1454-lab", 
                "identifier": [
                    {
                        "system": "http://www.bmc.nl/zorgportal/identifiers/observations", 
                        "use": "official", 
                        "value": "ehealth-1454-lab"
                    }
                ], 
                "performer": [
                    {
                        "reference": "Practitioner/ehealth-Practitioner-7880378"
                    }
                ], 
                "referenceRange": [
                    {
                        "high": {
                            "code": "g/dL", 
                            "system": "http://unitsofmeasure.org", 
                            "unit": "g/dL", 
                            "value": 18.0
                        }, 
                        "low": {
                            "code": "g/dL", 
                            "system": "http://unitsofmeasure.org", 
                            "unit": "g/dL", 
                            "value": 14.0
                        }, 
                        "type": {
                            "coding": [
                                {
                                    "code": "normal", 
                                    "display": "Normal Range", 
                                    "system": "http://hl7.org/fhir/referencerange-meaning"
                                }
                            ], 
                            "text": "Normal Range"
                        }
                    }
                ], 
                "resourceType": "Observation", 
                "status": "unknown", 
                "subject": {
                    "reference": "Patient/ehealth-1796238"
                }, 
                "text": {
                    "div": "<div xmlns=\"http://www.w3.org/1999/xhtml\">2006-07-27: Hgb Bld-mCnc = 12.6 g/dL</div>", 
                    "status": "generated"
                }, 
                "valueQuantity": {
                    "code": "g/dL", 
                    "system": "http://unitsofmeasure.org", 
                    "unit": "g/dL", 
                    "value": 12.6
                }
            }
        }, 
        {
            "request": {
                "method": "PUT", 
                "url": "Observation/ehealth-1455-lab"
            }, 
            "resource": {
                "category": [
                    {
                        "coding": [
                            {
                                "code": "laboratory", 
                                "display": "Laboratory", 
                                "system": "http://hl7.org/fhir/observation-category"
                            }
                        ], 
                        "text": "Laboratory"
                    }
                ], 
                "code": {
                    "coding": [
                        {
                            "code": "2339-0", 
                            "display": "Glucose Bld-mCnc", 
                            "system": "http://loinc.org"
                        }
                    ], 
                    "text": "Glucose Bld-mCnc"
                }, 
                "effectiveDateTime": "2006-07-27", 
                "id": "ehealth-1455-lab", 
                "identifier": [
                    {
                        "system": "http://www.bmc.nl/zorgportal/identifiers/observations", 
                        "use": "official", 
                        "value": "ehealth-1455-lab"
                    }
                ], 
                "performer": [
                    {
                        "reference": "Practitioner/ehealth-Practitioner-7880378"
                    }
                ], 
                "referenceRange": [
                    {
                        "high": {
                            "code": "mg/dL", 
                            "system": "http://unitsofmeasure.org", 
                            "unit": "mg/dL", 
                            "value": 109.0
                        }, 
                        "low": {
                            "code": "mg/dL", 
                            "system": "http://unitsofmeasure.org", 
                            "unit": "mg/dL", 
                            "value": 70.0
                        }, 
                        "type": {
                            "coding": [
                                {
                                    "code": "normal", 
                                    "display": "Normal Range", 
                                    "system": "http://hl7.org/fhir/referencerange-meaning"
                                }
                            ], 
                            "text": "Normal Range"
                        }
                    }
                ], 
                "resourceType": "Observation", 
                "status": "unknown", 
                "subject": {
                    "reference": "Patient/ehealth-1796238"
                }, 
                "text": {
                    "div": "<div xmlns=\"http://www.w3.org/1999/xhtml\">2006-07-27: Glucose Bld-mCnc = 147 mg/dL</div>", 
                    "status": "generated"
                }, 
                "valueQuantity": {
                    "code": "mg/dL", 
                    "system": "http://unitsofmeasure.org", 
                    "unit": "mg/dL", 
                    "value": 147.0
                }
            }
        }, 
        {
            "request": {
                "method": "PUT", 
                "url": "Observation/ehealth-1456-lab"
            }, 
            "resource": {
                "category": [
                    {
                        "coding": [
                            {
                                "code": "laboratory", 
                                "display": "Laboratory", 
                                "system": "http://hl7.org/fhir/observation-category"
                            }
                        ], 
                        "text": "Laboratory"
                    }
                ], 
                "code": {
                    "coding": [
                        {
                            "code": "2160-0", 
                            "display": "Creat SerPl-mCnc", 
                            "system": "http://loinc.org"
                        }
                    ], 
                    "text": "Creat SerPl-mCnc"
                }, 
                "effectiveDateTime": "2006-07-27", 
                "id": "ehealth-1456-lab", 
                "identifier": [
                    {
                        "system": "http://www.bmc.nl/zorgportal/identifiers/observations", 
                        "use": "official", 
                        "value": "ehealth-1456-lab"
                    }
                ], 
                "performer": [
                    {
                        "reference": "Practitioner/ehealth-Practitioner-7880378"
                    }
                ], 
                "referenceRange": [
                    {
                        "high": {
                            "code": "mg/dL", 
                            "system": "http://unitsofmeasure.org", 
                            "unit": "mg/dL", 
                            "value": 1.4
                        }, 
                        "low": {
                            "code": "mg/dL", 
                            "system": "http://unitsofmeasure.org", 
                            "unit": "mg/dL", 
                            "value": 0.8
                        }, 
                        "type": {
                            "coding": [
                                {
                                    "code": "normal", 
                                    "display": "Normal Range", 
                                    "system": "http://hl7.org/fhir/referencerange-meaning"
                                }
                            ], 
                            "text": "Normal Range"
                        }
                    }
                ], 
                "resourceType": "Observation", 
                "status": "unknown", 
                "subject": {
                    "reference": "Patient/ehealth-1796238"
                }, 
                "text": {
                    "div": "<div xmlns=\"http://www.w3.org/1999/xhtml\">2006-07-27: Creat SerPl-mCnc = 0.9 mg/dL</div>", 
                    "status": "generated"
                }, 
                "valueQuantity": {
                    "code": "mg/dL", 
                    "system": "http://unitsofmeasure.org", 
                    "unit": "mg/dL", 
                    "value": 0.9
                }
            }
        }, 
        {
            "request": {
                "method": "PUT", 
                "url": "MedicationRequest/ehealth-MedicationRequest-208"
            }, 
            "resource": {
                "dispenseRequest": {
                    "expectedSupplyDuration": {
                        "code": "d", 
                        "system": "http://unitsofmeasure.org", 
                        "unit": "days", 
                        "value": 25
                    }, 
                    "numberOfRepeatsAllowed": 1, 
                    "quantity": {
                        "code": "{puff}", 
                        "system": "http://unitsofmeasure.org", 
                        "unit": "{puff}", 
                        "value": 1.0
                    }
                }, 
                "dosageInstruction": [
                    {
                        "asNeededBoolean": true, 
                        "doseQuantity": {
                            "code": "{puff}", 
                            "system": "http://unitsofmeasure.org", 
                            "unit": "{puff}", 
                            "value": 2.0
                        }, 
                        "text": "2 puffs qid prn SOB", 
                        "timing": {
                            "repeat": {
                                "boundsPeriod": {
                                    "start": "2009-06-09"
                                }, 
                                "frequency": 4, 
                                "period": 1, 
                                "periodUnit": "d"
                            }
                        }
                    }
                ], 
                "id": "ehealth-MedicationRequest-208", 
                "intent": "order", 
                "medicationCodeableConcept": {
                    "coding": [
                        {
                            "code": "745752", 
                            "display": "200 ACTUAT Albuterol 0.09 MG/ACTUAT Metered Dose Inhaler [ProAir HFA]", 
                            "system": "http://www.nlm.nih.gov/research/umls/rxnorm"
                        }
                    ], 
                    "text": "200 ACTUAT Albuterol 0.09 MG/ACTUAT Metered Dose Inhaler [ProAir HFA]"
                }, 
                "resourceType": "MedicationRequest", 
                "status": "active", 
                "subject": {
                    "reference": "Patient/ehealth-1796238"
                }, 
                "text": {
                    "div": "<div xmlns=\"http://www.w3.org/1999/xhtml\">200 ACTUAT Albuterol 0.09 MG/ACTUAT Metered Dose Inhaler [ProAir HFA] (rxnorm: 745752)</div>", 
                    "status": "generated"
                }
            }
        }, 
        {
            "request": {
                "method": "PUT", 
                "url": "MedicationDispense/ehealth-MedicationDispense-251"
            }, 
            "resource": {
                "authorizingPrescription": [
                    {
                        "reference": "MedicationRequest/ehealth-MedicationRequest-208"
                    }
                ], 
                "daysSupply": {
                    "code": "d", 
                    "system": "http://unitsofmeasure.org", 
                    "unit": "days", 
                    "value": 30
                }, 
                "id": "ehealth-MedicationDispense-251", 
                "medicationCodeableConcept": {
                    "coding": [
                        {
                            "code": "745752", 
                            "display": "200 ACTUAT Albuterol 0.09 MG/ACTUAT Metered Dose Inhaler [ProAir HFA]", 
                            "system": "http://www.nlm.nih.gov/research/umls/rxnorm"
                        }
                    ], 
                    "text": "200 ACTUAT Albuterol 0.09 MG/ACTUAT Metered Dose Inhaler [ProAir HFA]"
                }, 
                "quantity": {
                    "code": "{tablets}", 
                    "system": "http://unitsofmeasure.org", 
                    "unit": "tablets", 
                    "value": 8.0
                }, 
                "resourceType": "MedicationDispense", 
                "status": "completed", 
                "subject": {
                    "reference": "Patient/ehealth-1796238"
                }, 
                "text": {
                    "div": "<div xmlns=\"http://www.w3.org/1999/xhtml\">Dispensed 8 tablets = 30 day supply of 200 ACTUAT Albuterol 0.09 MG/ACTUAT Metered Dose Inhaler [ProAir HFA]</div>", 
                    "status": "generated"
                }, 
                "whenHandedOver": "2009-08-30"
            }
        }, 
        {
            "request": {
                "method": "PUT", 
                "url": "MedicationDispense/ehealth-MedicationDispense-249"
            }, 
            "resource": {
                "authorizingPrescription": [
                    {
                        "reference": "MedicationRequest/ehealth-MedicationRequest-208"
                    }
                ], 
                "daysSupply": {
                    "code": "d", 
                    "system": "http://unitsofmeasure.org", 
                    "unit": "days", 
                    "value": 30
                }, 
                "id": "ehealth-MedicationDispense-249", 
                "medicationCodeableConcept": {
                    "coding": [
                        {
                            "code": "745752", 
                            "display": "200 ACTUAT Albuterol 0.09 MG/ACTUAT Metered Dose Inhaler [ProAir HFA]", 
                            "system": "http://www.nlm.nih.gov/research/umls/rxnorm"
                        }
                    ], 
                    "text": "200 ACTUAT Albuterol 0.09 MG/ACTUAT Metered Dose Inhaler [ProAir HFA]"
                }, 
                "quantity": {
                    "code": "{tablets}", 
                    "system": "http://unitsofmeasure.org", 
                    "unit": "tablets", 
                    "value": 8.0
                }, 
                "resourceType": "MedicationDispense", 
                "status": "completed", 
                "subject": {
                    "reference": "Patient/ehealth-1796238"
                }, 
                "text": {
                    "div": "<div xmlns=\"http://www.w3.org/1999/xhtml\">Dispensed 8 tablets = 30 day supply of 200 ACTUAT Albuterol 0.09 MG/ACTUAT Metered Dose Inhaler [ProAir HFA]</div>", 
                    "status": "generated"
                }, 
                "whenHandedOver": "2009-06-09"
            }
        }, 
        {
            "request": {
                "method": "PUT", 
                "url": "MedicationDispense/ehealth-MedicationDispense-250"
            }, 
            "resource": {
                "authorizingPrescription": [
                    {
                        "reference": "MedicationRequest/ehealth-MedicationRequest-208"
                    }
                ], 
                "daysSupply": {
                    "code": "d", 
                    "system": "http://unitsofmeasure.org", 
                    "unit": "days", 
                    "value": 30
                }, 
                "id": "ehealth-MedicationDispense-250", 
                "medicationCodeableConcept": {
                    "coding": [
                        {
                            "code": "745752", 
                            "display": "200 ACTUAT Albuterol 0.09 MG/ACTUAT Metered Dose Inhaler [ProAir HFA]", 
                            "system": "http://www.nlm.nih.gov/research/umls/rxnorm"
                        }
                    ], 
                    "text": "200 ACTUAT Albuterol 0.09 MG/ACTUAT Metered Dose Inhaler [ProAir HFA]"
                }, 
                "quantity": {
                    "code": "{tablets}", 
                    "system": "http://unitsofmeasure.org", 
                    "unit": "tablets", 
                    "value": 8.0
                }, 
                "resourceType": "MedicationDispense", 
                "status": "completed", 
                "subject": {
                    "reference": "Patient/ehealth-1796238"
                }, 
                "text": {
                    "div": "<div xmlns=\"http://www.w3.org/1999/xhtml\">Dispensed 8 tablets = 30 day supply of 200 ACTUAT Albuterol 0.09 MG/ACTUAT Metered Dose Inhaler [ProAir HFA]</div>", 
                    "status": "generated"
                }, 
                "whenHandedOver": "2009-08-04"
            }
        }, 
        {
            "request": {
                "method": "PUT", 
                "url": "MedicationRequest/ehealth-MedicationRequest-209"
            }, 
            "resource": {
                "dispenseRequest": {
                    "expectedSupplyDuration": {
                        "code": "d", 
                        "system": "http://unitsofmeasure.org", 
                        "unit": "days", 
                        "value": 6
                    }, 
                    "numberOfRepeatsAllowed": 1, 
                    "quantity": {
                        "code": "{tablet}", 
                        "system": "http://unitsofmeasure.org", 
                        "unit": "{tablet}", 
                        "value": 6.0
                    }
                }, 
                "dosageInstruction": [
                    {
                        "asNeededBoolean": true, 
                        "doseQuantity": {
                            "code": "{tablet}", 
                            "system": "http://unitsofmeasure.org", 
                            "unit": "{tablet}", 
                            "value": 1.0
                        }, 
                        "text": "1 daily prn ED", 
                        "timing": {
                            "repeat": {
                                "boundsPeriod": {
                                    "start": "2009-08-10"
                                }, 
                                "frequency": 1, 
                                "period": 1, 
                                "periodUnit": "d"
                            }
                        }
                    }
                ], 
                "id": "ehealth-MedicationRequest-209", 
                "intent": "order", 
                "medicationCodeableConcept": {
                    "coding": [
                        {
                            "code": "213271", 
                            "display": "sildenafil 100 MG Oral Tablet [Viagra]", 
                            "system": "http://www.nlm.nih.gov/research/umls/rxnorm"
                        }
                    ], 
                    "text": "sildenafil 100 MG Oral Tablet [Viagra]"
                }, 
                "resourceType": "MedicationRequest", 
                "status": "active", 
                "subject": {
                    "reference": "Patient/ehealth-1796238"
                }, 
                "text": {
                    "div": "<div xmlns=\"http://www.w3.org/1999/xhtml\">sildenafil 100 MG Oral Tablet [Viagra] (rxnorm: 213271)</div>", 
                    "status": "generated"
                }
            }
        }, 
        {
            "request": {
                "method": "PUT", 
                "url": "MedicationDispense/ehealth-MedicationDispense-253"
            }, 
            "resource": {
                "authorizingPrescription": [
                    {
                        "reference": "MedicationRequest/ehealth-MedicationRequest-209"
                    }
                ], 
                "daysSupply": {
                    "code": "d", 
                    "system": "http://unitsofmeasure.org", 
                    "unit": "days", 
                    "value": 6
                }, 
                "id": "ehealth-MedicationDispense-253", 
                "medicationCodeableConcept": {
                    "coding": [
                        {
                            "code": "213271", 
                            "display": "sildenafil 100 MG Oral Tablet [Viagra]", 
                            "system": "http://www.nlm.nih.gov/research/umls/rxnorm"
                        }
                    ], 
                    "text": "sildenafil 100 MG Oral Tablet [Viagra]"
                }, 
                "quantity": {
                    "code": "{tablets}", 
                    "system": "http://unitsofmeasure.org", 
                    "unit": "tablets", 
                    "value": 6.0
                }, 
                "resourceType": "MedicationDispense", 
                "status": "completed", 
                "subject": {
                    "reference": "Patient/ehealth-1796238"
                }, 
                "text": {
                    "div": "<div xmlns=\"http://www.w3.org/1999/xhtml\">Dispensed 6 tablets = 6 day supply of sildenafil 100 MG Oral Tablet [Viagra]</div>", 
                    "status": "generated"
                }, 
                "whenHandedOver": "2009-08-30"
            }
        }, 
        {
            "request": {
                "method": "PUT", 
                "url": "MedicationDispense/ehealth-MedicationDispense-252"
            }, 
            "resource": {
                "authorizingPrescription": [
                    {
                        "reference": "MedicationRequest/ehealth-MedicationRequest-209"
                    }
                ], 
                "daysSupply": {
                    "code": "d", 
                    "system": "http://unitsofmeasure.org", 
                    "unit": "days", 
                    "value": 6
                }, 
                "id": "ehealth-MedicationDispense-252", 
                "medicationCodeableConcept": {
                    "coding": [
                        {
                            "code": "213271", 
                            "display": "sildenafil 100 MG Oral Tablet [Viagra]", 
                            "system": "http://www.nlm.nih.gov/research/umls/rxnorm"
                        }
                    ], 
                    "text": "sildenafil 100 MG Oral Tablet [Viagra]"
                }, 
                "quantity": {
                    "code": "{tablets}", 
                    "system": "http://unitsofmeasure.org", 
                    "unit": "tablets", 
                    "value": 6.0
                }, 
                "resourceType": "MedicationDispense", 
                "status": "completed", 
                "subject": {
                    "reference": "Patient/ehealth-1796238"
                }, 
                "text": {
                    "div": "<div xmlns=\"http://www.w3.org/1999/xhtml\">Dispensed 6 tablets = 6 day supply of sildenafil 100 MG Oral Tablet [Viagra]</div>", 
                    "status": "generated"
                }, 
                "whenHandedOver": "2009-08-10"
            }
        }, 
        {
            "request": {
                "method": "PUT", 
                "url": "Condition/ehealth-Condition-147"
            }, 
            "resource": {
                "clinicalStatus": "active", 
                "code": {
                    "coding": [
                        {
                            "code": "409622000", 
                            "display": "Acute respiratory failure", 
                            "system": "http://snomed.info/sct"
                        }
                    ], 
                    "text": "Acute respiratory failure"
                }, 
                "id": "ehealth-Condition-147", 
                "onsetDateTime": "2006-07-17", 
                "resourceType": "Condition", 
                "subject": {
                    "reference": "Patient/ehealth-1796238"
                }, 
                "text": {
                    "div": "<div xmlns=\"http://www.w3.org/1999/xhtml\">Acute respiratory failure</div>", 
                    "status": "generated"
                }, 
                "verificationStatus": "confirmed"
            }
        }, 
        {
            "request": {
                "method": "PUT", 
                "url": "Condition/ehealth-Condition-148"
            }, 
            "resource": {
                "clinicalStatus": "active", 
                "code": {
                    "coding": [
                        {
                            "code": "195949008", 
                            "display": "Chronic asthmatic bronchitis", 
                            "system": "http://snomed.info/sct"
                        }
                    ], 
                    "text": "Chronic asthmatic bronchitis"
                }, 
                "id": "ehealth-Condition-148", 
                "onsetDateTime": "2006-07-17", 
                "resourceType": "Condition", 
                "subject": {
                    "reference": "Patient/ehealth-1796238"
                }, 
                "text": {
                    "div": "<div xmlns=\"http://www.w3.org/1999/xhtml\">Chronic asthmatic bronchitis</div>", 
                    "status": "generated"
                }, 
                "verificationStatus": "confirmed"
            }
        }, 
        {
            "request": {
                "method": "PUT", 
                "url": "Condition/ehealth-Condition-149"
            }, 
            "resource": {
                "clinicalStatus": "active", 
                "code": {
                    "coding": [
                        {
                            "code": "34095006", 
                            "display": "Dehydration", 
                            "system": "http://snomed.info/sct"
                        }
                    ], 
                    "text": "Dehydration"
                }, 
                "id": "ehealth-Condition-149", 
                "onsetDateTime": "2006-07-17", 
                "resourceType": "Condition", 
                "subject": {
                    "reference": "Patient/ehealth-1796238"
                }, 
                "text": {
                    "div": "<div xmlns=\"http://www.w3.org/1999/xhtml\">Dehydration</div>", 
                    "status": "generated"
                }, 
                "verificationStatus": "confirmed"
            }
        }, 
        {
            "request": {
                "method": "PUT", 
                "url": "Condition/ehealth-Condition-150"
            }, 
            "resource": {
                "clinicalStatus": "active", 
                "code": {
                    "coding": [
                        {
                            "code": "44054006", 
                            "display": "Diabetes mellitus type 2", 
                            "system": "http://snomed.info/sct"
                        }
                    ], 
                    "text": "Diabetes mellitus type 2"
                }, 
                "id": "ehealth-Condition-150", 
                "onsetDateTime": "2006-07-17", 
                "resourceType": "Condition", 
                "subject": {
                    "reference": "Patient/ehealth-1796238"
                }, 
                "text": {
                    "div": "<div xmlns=\"http://www.w3.org/1999/xhtml\">Diabetes mellitus type 2</div>", 
                    "status": "generated"
                }, 
                "verificationStatus": "confirmed"
            }
        }, 
        {
            "request": {
                "method": "PUT", 
                "url": "Condition/ehealth-Condition-151"
            }, 
            "resource": {
                "clinicalStatus": "active", 
                "code": {
                    "coding": [
                        {
                            "code": "38341003", 
                            "display": "Essential hypertension", 
                            "system": "http://snomed.info/sct"
                        }
                    ], 
                    "text": "Essential hypertension"
                }, 
                "id": "ehealth-Condition-151", 
                "onsetDateTime": "2006-07-17", 
                "resourceType": "Condition", 
                "subject": {
                    "reference": "Patient/ehealth-1796238"
                }, 
                "text": {
                    "div": "<div xmlns=\"http://www.w3.org/1999/xhtml\">Essential hypertension</div>", 
                    "status": "generated"
                }, 
                "verificationStatus": "confirmed"
            }
        }, 
        {
            "request": {
                "method": "PUT", 
                "url": "Condition/ehealth-Condition-152"
            }, 
            "resource": {
                "clinicalStatus": "active", 
                "code": {
                    "coding": [
                        {
                            "code": "55525008", 
                            "display": "Paralytic ileus", 
                            "system": "http://snomed.info/sct"
                        }
                    ], 
                    "text": "Paralytic ileus"
                }, 
                "id": "ehealth-Condition-152", 
                "onsetDateTime": "2006-07-17", 
                "resourceType": "Condition", 
                "subject": {
                    "reference": "Patient/ehealth-1796238"
                }, 
                "text": {
                    "div": "<div xmlns=\"http://www.w3.org/1999/xhtml\">Paralytic ileus</div>", 
                    "status": "generated"
                }, 
                "verificationStatus": "confirmed"
            }
        }, 
        {
            "request": {
                "method": "PUT", 
                "url": "Observation/ehealth-smokingstatus-30"
            }, 
            "resource": {
                "category": [
                    {
                        "coding": [
                            {
                                "code": "social-history", 
                                "display": "Social History", 
                                "system": "http://hl7.org/fhir/observation-category"
                            }
                        ], 
                        "text": "Social History"
                    }
                ], 
                "code": {
                    "coding": [
                        {
                            "code": "72166-2", 
                            "display": "Tobacco smoking status", 
                            "system": "http://loinc.org"
                        }
                    ], 
                    "text": "Tobacco smoking status"
                }, 
                "effectiveDateTime": "2016-12-08", 
                "id": "ehealth-smokingstatus-30", 
                "identifier": [
                    {
                        "system": "http://www.bmc.nl/zorgportal/identifiers/observations", 
                        "use": "official", 
                        "value": "ehealth-30"
                    }
                ], 
                "performer": [
                    {
                        "reference": "Practitioner/ehealth-Practitioner-7880378"
                    }
                ], 
                "resourceType": "Observation", 
                "status": "final", 
                "subject": {
                    "reference": "Patient/ehealth-1796238"
                }, 
                "text": {
                    "div": "<div xmlns=\"http://www.w3.org/1999/xhtml\">Tobacco smoking status: Former smoker</div>", 
                    "status": "generated"
                }, 
                "valueCodeableConcept": {
                    "coding": [
                        {
                            "code": "8517006", 
                            "display": "Former smoker", 
                            "system": "http://snomed.info/sct"
                        }
                    ], 
                    "text": "Former smoker"
                }
            }
        }, 
        {
            "request": {
                "method": "PUT", 
                "url": "AllergyIntolerance/ehealth-AllergyIntolerance-42"
            }, 
            "resource": {
                "assertedDate": "2000", 
                "clinicalStatus": "active", 
                "code": {
                    "coding": [
                        {
                            "code": "716186003", 
                            "display": "No known allergies", 
                            "system": "http://snomed.info/sct"
                        }
                    ], 
                    "text": "No known allergies"
                }, 
                "id": "ehealth-AllergyIntolerance-42", 
                "patient": {
                    "reference": "Patient/ehealth-1796238"
                }, 
                "resourceType": "AllergyIntolerance", 
                "text": {
                    "div": "<div xmlns=\"http://www.w3.org/1999/xhtml\">No known allergies</div>", 
                    "status": "generated"
                }, 
                "verificationStatus": "confirmed"
            }
        }
    ], 
    "resourceType": "Bundle", 
    "type": "transaction"
}
