{
    "entry": [
        {
            "request": {
                "method": "PUT", 
                "url": "Observation/ehealth-2324-lab"
            }, 
            "resource": {
                "category": [
                    {
                        "coding": [
                            {
                                "code": "laboratory", 
                                "display": "Laboratory", 
                                "system": "http://hl7.org/fhir/observation-category"
                            }
                        ], 
                        "text": "Laboratory"
                    }
                ], 
                "code": {
                    "coding": [
                        {
                            "code": "1742-6", 
                            "display": "ALT SerPl-cCnc", 
                            "system": "http://loinc.org"
                        }
                    ], 
                    "text": "ALT SerPl-cCnc"
                }, 
                "effectiveDateTime": "2007-12-11", 
                "id": "ehealth-2324-lab", 
                "identifier": [
                    {
                        "system": "http://www.bmc.nl/zorgportal/identifiers/observations", 
                        "use": "official", 
                        "value": "ehealth-2324-lab"
                    }
                ], 
                "performer": [
                    {
                        "reference": "Practitioner/ehealth-Practitioner-71614502"
                    }
                ], 
                "referenceRange": [
                    {
                        "high": {
                            "code": "U/L", 
                            "system": "http://unitsofmeasure.org", 
                            "unit": "U/L", 
                            "value": 72.0
                        }, 
                        "low": {
                            "code": "U/L", 
                            "system": "http://unitsofmeasure.org", 
                            "unit": "U/L", 
                            "value": 21.0
                        }, 
                        "type": {
                            "coding": [
                                {
                                    "code": "normal", 
                                    "display": "Normal Range", 
                                    "system": "http://hl7.org/fhir/referencerange-meaning"
                                }
                            ], 
                            "text": "Normal Range"
                        }
                    }
                ], 
                "resourceType": "Observation", 
                "status": "unknown", 
                "subject": {
                    "reference": "Patient/ehealth-1869612"
                }, 
                "text": {
                    "div": "<div xmlns=\"http://www.w3.org/1999/xhtml\">2007-12-11: ALT SerPl-cCnc = 115 U/L</div>", 
                    "status": "generated"
                }, 
                "valueQuantity": {
                    "code": "U/L", 
                    "system": "http://unitsofmeasure.org", 
                    "unit": "U/L", 
                    "value": 115.0
                }
            }
        }, 
        {
            "request": {
                "method": "PUT", 
                "url": "Observation/ehealth-2325-lab"
            }, 
            "resource": {
                "category": [
                    {
                        "coding": [
                            {
                                "code": "laboratory", 
                                "display": "Laboratory", 
                                "system": "http://hl7.org/fhir/observation-category"
                            }
                        ], 
                        "text": "Laboratory"
                    }
                ], 
                "code": {
                    "coding": [
                        {
                            "code": "2823-3", 
                            "display": "Potassium SerPl-sCnc", 
                            "system": "http://loinc.org"
                        }
                    ], 
                    "text": "Potassium SerPl-sCnc"
                }, 
                "effectiveDateTime": "2007-12-11", 
                "id": "ehealth-2325-lab", 
                "identifier": [
                    {
                        "system": "http://www.bmc.nl/zorgportal/identifiers/observations", 
                        "use": "official", 
                        "value": "ehealth-2325-lab"
                    }
                ], 
                "performer": [
                    {
                        "reference": "Practitioner/ehealth-Practitioner-71614502"
                    }
                ], 
                "referenceRange": [
                    {
                        "high": {
                            "code": "mmol/L", 
                            "system": "http://unitsofmeasure.org", 
                            "unit": "mmol/L", 
                            "value": 5.5
                        }, 
                        "low": {
                            "code": "mmol/L", 
                            "system": "http://unitsofmeasure.org", 
                            "unit": "mmol/L", 
                            "value": 3.5
                        }, 
                        "type": {
                            "coding": [
                                {
                                    "code": "normal", 
                                    "display": "Normal Range", 
                                    "system": "http://hl7.org/fhir/referencerange-meaning"
                                }
                            ], 
                            "text": "Normal Range"
                        }
                    }
                ], 
                "resourceType": "Observation", 
                "status": "unknown", 
                "subject": {
                    "reference": "Patient/ehealth-1869612"
                }, 
                "text": {
                    "div": "<div xmlns=\"http://www.w3.org/1999/xhtml\">2007-12-11: Potassium SerPl-sCnc = 4.1 mmol/L</div>", 
                    "status": "generated"
                }, 
                "valueQuantity": {
                    "code": "mmol/L", 
                    "system": "http://unitsofmeasure.org", 
                    "unit": "mmol/L", 
                    "value": 4.1
                }
            }
        }, 
        {
            "request": {
                "method": "PUT", 
                "url": "Observation/ehealth-2326-lab"
            }, 
            "resource": {
                "category": [
                    {
                        "coding": [
                            {
                                "code": "laboratory", 
                                "display": "Laboratory", 
                                "system": "http://hl7.org/fhir/observation-category"
                            }
                        ], 
                        "text": "Laboratory"
                    }
                ], 
                "code": {
                    "coding": [
                        {
                            "code": "2075-0", 
                            "display": "Chloride SerPl-sCnc", 
                            "system": "http://loinc.org"
                        }
                    ], 
                    "text": "Chloride SerPl-sCnc"
                }, 
                "effectiveDateTime": "2007-12-11", 
                "id": "ehealth-2326-lab", 
                "identifier": [
                    {
                        "system": "http://www.bmc.nl/zorgportal/identifiers/observations", 
                        "use": "official", 
                        "value": "ehealth-2326-lab"
                    }
                ], 
                "performer": [
                    {
                        "reference": "Practitioner/ehealth-Practitioner-71614502"
                    }
                ], 
                "referenceRange": [
                    {
                        "high": {
                            "code": "mmol/L", 
                            "system": "http://unitsofmeasure.org", 
                            "unit": "mmol/L", 
                            "value": 109.0
                        }, 
                        "low": {
                            "code": "mmol/L", 
                            "system": "http://unitsofmeasure.org", 
                            "unit": "mmol/L", 
                            "value": 99.0
                        }, 
                        "type": {
                            "coding": [
                                {
                                    "code": "normal", 
                                    "display": "Normal Range", 
                                    "system": "http://hl7.org/fhir/referencerange-meaning"
                                }
                            ], 
                            "text": "Normal Range"
                        }
                    }
                ], 
                "resourceType": "Observation", 
                "status": "unknown", 
                "subject": {
                    "reference": "Patient/ehealth-1869612"
                }, 
                "text": {
                    "div": "<div xmlns=\"http://www.w3.org/1999/xhtml\">2007-12-11: Chloride SerPl-sCnc = 103 mmol/L</div>", 
                    "status": "generated"
                }, 
                "valueQuantity": {
                    "code": "mmol/L", 
                    "system": "http://unitsofmeasure.org", 
                    "unit": "mmol/L", 
                    "value": 103.0
                }
            }
        }, 
        {
            "request": {
                "method": "PUT", 
                "url": "Observation/ehealth-2327-lab"
            }, 
            "resource": {
                "category": [
                    {
                        "coding": [
                            {
                                "code": "laboratory", 
                                "display": "Laboratory", 
                                "system": "http://hl7.org/fhir/observation-category"
                            }
                        ], 
                        "text": "Laboratory"
                    }
                ], 
                "code": {
                    "coding": [
                        {
                            "code": "2028-9", 
                            "display": "CO2 SerPl-sCnc", 
                            "system": "http://loinc.org"
                        }
                    ], 
                    "text": "CO2 SerPl-sCnc"
                }, 
                "effectiveDateTime": "2007-12-11", 
                "id": "ehealth-2327-lab", 
                "identifier": [
                    {
                        "system": "http://www.bmc.nl/zorgportal/identifiers/observations", 
                        "use": "official", 
                        "value": "ehealth-2327-lab"
                    }
                ], 
                "performer": [
                    {
                        "reference": "Practitioner/ehealth-Practitioner-71614502"
                    }
                ], 
                "referenceRange": [
                    {
                        "high": {
                            "code": "mmol/L", 
                            "system": "http://unitsofmeasure.org", 
                            "unit": "mmol/L", 
                            "value": 31.0
                        }, 
                        "low": {
                            "code": "mmol/L", 
                            "system": "http://unitsofmeasure.org", 
                            "unit": "mmol/L", 
                            "value": 20.0
                        }, 
                        "type": {
                            "coding": [
                                {
                                    "code": "normal", 
                                    "display": "Normal Range", 
                                    "system": "http://hl7.org/fhir/referencerange-meaning"
                                }
                            ], 
                            "text": "Normal Range"
                        }
                    }
                ], 
                "resourceType": "Observation", 
                "status": "unknown", 
                "subject": {
                    "reference": "Patient/ehealth-1869612"
                }, 
                "text": {
                    "div": "<div xmlns=\"http://www.w3.org/1999/xhtml\">2007-12-11: CO2 SerPl-sCnc = 30 mmol/L</div>", 
                    "status": "generated"
                }, 
                "valueQuantity": {
                    "code": "mmol/L", 
                    "system": "http://unitsofmeasure.org", 
                    "unit": "mmol/L", 
                    "value": 30.0
                }
            }
        }, 
        {
            "request": {
                "method": "PUT", 
                "url": "Observation/ehealth-2328-lab"
            }, 
            "resource": {
                "category": [
                    {
                        "coding": [
                            {
                                "code": "laboratory", 
                                "display": "Laboratory", 
                                "system": "http://hl7.org/fhir/observation-category"
                            }
                        ], 
                        "text": "Laboratory"
                    }
                ], 
                "code": {
                    "coding": [
                        {
                            "code": "1975-2", 
                            "display": "Bilirub SerPl-mCnc", 
                            "system": "http://loinc.org"
                        }
                    ], 
                    "text": "Bilirub SerPl-mCnc"
                }, 
                "effectiveDateTime": "2007-12-11", 
                "id": "ehealth-2328-lab", 
                "identifier": [
                    {
                        "system": "http://www.bmc.nl/zorgportal/identifiers/observations", 
                        "use": "official", 
                        "value": "ehealth-2328-lab"
                    }
                ], 
                "performer": [
                    {
                        "reference": "Practitioner/ehealth-Practitioner-71614502"
                    }
                ], 
                "referenceRange": [
                    {
                        "high": {
                            "code": "mg/dL", 
                            "system": "http://unitsofmeasure.org", 
                            "unit": "mg/dL", 
                            "value": 1.3
                        }, 
                        "low": {
                            "code": "mg/dL", 
                            "system": "http://unitsofmeasure.org", 
                            "unit": "mg/dL", 
                            "value": 0.2
                        }, 
                        "type": {
                            "coding": [
                                {
                                    "code": "normal", 
                                    "display": "Normal Range", 
                                    "system": "http://hl7.org/fhir/referencerange-meaning"
                                }
                            ], 
                            "text": "Normal Range"
                        }
                    }
                ], 
                "resourceType": "Observation", 
                "status": "unknown", 
                "subject": {
                    "reference": "Patient/ehealth-1869612"
                }, 
                "text": {
                    "div": "<div xmlns=\"http://www.w3.org/1999/xhtml\">2007-12-11: Bilirub SerPl-mCnc = 0.7 mg/dL</div>", 
                    "status": "generated"
                }, 
                "valueQuantity": {
                    "code": "mg/dL", 
                    "system": "http://unitsofmeasure.org", 
                    "unit": "mg/dL", 
                    "value": 0.7
                }
            }
        }, 
        {
            "request": {
                "method": "PUT", 
                "url": "Observation/ehealth-2329-lab"
            }, 
            "resource": {
                "category": [
                    {
                        "coding": [
                            {
                                "code": "laboratory", 
                                "display": "Laboratory", 
                                "system": "http://hl7.org/fhir/observation-category"
                            }
                        ], 
                        "text": "Laboratory"
                    }
                ], 
                "code": {
                    "coding": [
                        {
                            "code": "1920-8", 
                            "display": "AST SerPl-cCnc", 
                            "system": "http://loinc.org"
                        }
                    ], 
                    "text": "AST SerPl-cCnc"
                }, 
                "effectiveDateTime": "2007-12-11", 
                "id": "ehealth-2329-lab", 
                "identifier": [
                    {
                        "system": "http://www.bmc.nl/zorgportal/identifiers/observations", 
                        "use": "official", 
                        "value": "ehealth-2329-lab"
                    }
                ], 
                "performer": [
                    {
                        "reference": "Practitioner/ehealth-Practitioner-71614502"
                    }
                ], 
                "referenceRange": [
                    {
                        "high": {
                            "code": "U/L", 
                            "system": "http://unitsofmeasure.org", 
                            "unit": "U/L", 
                            "value": 59.0
                        }, 
                        "low": {
                            "code": "U/L", 
                            "system": "http://unitsofmeasure.org", 
                            "unit": "U/L", 
                            "value": 17.0
                        }, 
                        "type": {
                            "coding": [
                                {
                                    "code": "normal", 
                                    "display": "Normal Range", 
                                    "system": "http://hl7.org/fhir/referencerange-meaning"
                                }
                            ], 
                            "text": "Normal Range"
                        }
                    }
                ], 
                "resourceType": "Observation", 
                "status": "unknown", 
                "subject": {
                    "reference": "Patient/ehealth-1869612"
                }, 
                "text": {
                    "div": "<div xmlns=\"http://www.w3.org/1999/xhtml\">2007-12-11: AST SerPl-cCnc = 66 U/L</div>", 
                    "status": "generated"
                }, 
                "valueQuantity": {
                    "code": "U/L", 
                    "system": "http://unitsofmeasure.org", 
                    "unit": "U/L", 
                    "value": 66.0
                }
            }
        }, 
        {
            "request": {
                "method": "PUT", 
                "url": "Observation/ehealth-2330-lab"
            }, 
            "resource": {
                "category": [
                    {
                        "coding": [
                            {
                                "code": "laboratory", 
                                "display": "Laboratory", 
                                "system": "http://hl7.org/fhir/observation-category"
                            }
                        ], 
                        "text": "Laboratory"
                    }
                ], 
                "code": {
                    "coding": [
                        {
                            "code": "2951-2", 
                            "display": "Sodium SerPl-sCnc", 
                            "system": "http://loinc.org"
                        }
                    ], 
                    "text": "Sodium SerPl-sCnc"
                }, 
                "effectiveDateTime": "2007-12-11", 
                "id": "ehealth-2330-lab", 
                "identifier": [
                    {
                        "system": "http://www.bmc.nl/zorgportal/identifiers/observations", 
                        "use": "official", 
                        "value": "ehealth-2330-lab"
                    }
                ], 
                "performer": [
                    {
                        "reference": "Practitioner/ehealth-Practitioner-71614502"
                    }
                ], 
                "referenceRange": [
                    {
                        "high": {
                            "code": "mmol/L", 
                            "system": "http://unitsofmeasure.org", 
                            "unit": "mmol/L", 
                            "value": 145.0
                        }, 
                        "low": {
                            "code": "mmol/L", 
                            "system": "http://unitsofmeasure.org", 
                            "unit": "mmol/L", 
                            "value": 136.0
                        }, 
                        "type": {
                            "coding": [
                                {
                                    "code": "normal", 
                                    "display": "Normal Range", 
                                    "system": "http://hl7.org/fhir/referencerange-meaning"
                                }
                            ], 
                            "text": "Normal Range"
                        }
                    }
                ], 
                "resourceType": "Observation", 
                "status": "unknown", 
                "subject": {
                    "reference": "Patient/ehealth-1869612"
                }, 
                "text": {
                    "div": "<div xmlns=\"http://www.w3.org/1999/xhtml\">2007-12-11: Sodium SerPl-sCnc = 139 mmol/L</div>", 
                    "status": "generated"
                }, 
                "valueQuantity": {
                    "code": "mmol/L", 
                    "system": "http://unitsofmeasure.org", 
                    "unit": "mmol/L", 
                    "value": 139.0
                }
            }
        }, 
        {
            "request": {
                "method": "PUT", 
                "url": "Observation/ehealth-2331-lab"
            }, 
            "resource": {
                "category": [
                    {
                        "coding": [
                            {
                                "code": "laboratory", 
                                "display": "Laboratory", 
                                "system": "http://hl7.org/fhir/observation-category"
                            }
                        ], 
                        "text": "Laboratory"
                    }
                ], 
                "code": {
                    "coding": [
                        {
                            "code": "2160-0", 
                            "display": "Creat SerPl-mCnc", 
                            "system": "http://loinc.org"
                        }
                    ], 
                    "text": "Creat SerPl-mCnc"
                }, 
                "effectiveDateTime": "2007-12-11", 
                "id": "ehealth-2331-lab", 
                "identifier": [
                    {
                        "system": "http://www.bmc.nl/zorgportal/identifiers/observations", 
                        "use": "official", 
                        "value": "ehealth-2331-lab"
                    }
                ], 
                "performer": [
                    {
                        "reference": "Practitioner/ehealth-Practitioner-71614502"
                    }
                ], 
                "referenceRange": [
                    {
                        "high": {
                            "code": "mg/dL", 
                            "system": "http://unitsofmeasure.org", 
                            "unit": "mg/dL", 
                            "value": 1.3
                        }, 
                        "low": {
                            "code": "mg/dL", 
                            "system": "http://unitsofmeasure.org", 
                            "unit": "mg/dL", 
                            "value": 0.7
                        }, 
                        "type": {
                            "coding": [
                                {
                                    "code": "normal", 
                                    "display": "Normal Range", 
                                    "system": "http://hl7.org/fhir/referencerange-meaning"
                                }
                            ], 
                            "text": "Normal Range"
                        }
                    }
                ], 
                "resourceType": "Observation", 
                "status": "unknown", 
                "subject": {
                    "reference": "Patient/ehealth-1869612"
                }, 
                "text": {
                    "div": "<div xmlns=\"http://www.w3.org/1999/xhtml\">2007-12-11: Creat SerPl-mCnc = 0.9 mg/dL</div>", 
                    "status": "generated"
                }, 
                "valueQuantity": {
                    "code": "mg/dL", 
                    "system": "http://unitsofmeasure.org", 
                    "unit": "mg/dL", 
                    "value": 0.9
                }
            }
        }, 
        {
            "request": {
                "method": "PUT", 
                "url": "Observation/ehealth-2332-lab"
            }, 
            "resource": {
                "category": [
                    {
                        "coding": [
                            {
                                "code": "laboratory", 
                                "display": "Laboratory", 
                                "system": "http://hl7.org/fhir/observation-category"
                            }
                        ], 
                        "text": "Laboratory"
                    }
                ], 
                "code": {
                    "coding": [
                        {
                            "code": "17861-6", 
                            "display": "Calcium SerPl-mCnc", 
                            "system": "http://loinc.org"
                        }
                    ], 
                    "text": "Calcium SerPl-mCnc"
                }, 
                "effectiveDateTime": "2009-08-30", 
                "id": "ehealth-2332-lab", 
                "identifier": [
                    {
                        "system": "http://www.bmc.nl/zorgportal/identifiers/observations", 
                        "use": "official", 
                        "value": "ehealth-2332-lab"
                    }
                ], 
                "performer": [
                    {
                        "reference": "Practitioner/ehealth-Practitioner-71614502"
                    }
                ], 
                "referenceRange": [
                    {
                        "high": {
                            "code": "mg/dL", 
                            "system": "http://unitsofmeasure.org", 
                            "unit": "mg/dL", 
                            "value": 10.5
                        }, 
                        "low": {
                            "code": "mg/dL", 
                            "system": "http://unitsofmeasure.org", 
                            "unit": "mg/dL", 
                            "value": 8.5
                        }, 
                        "type": {
                            "coding": [
                                {
                                    "code": "normal", 
                                    "display": "Normal Range", 
                                    "system": "http://hl7.org/fhir/referencerange-meaning"
                                }
                            ], 
                            "text": "Normal Range"
                        }
                    }
                ], 
                "resourceType": "Observation", 
                "status": "unknown", 
                "subject": {
                    "reference": "Patient/ehealth-1869612"
                }, 
                "text": {
                    "div": "<div xmlns=\"http://www.w3.org/1999/xhtml\">2009-08-30: Calcium SerPl-mCnc = 9.1 mg/dL</div>", 
                    "status": "generated"
                }, 
                "valueQuantity": {
                    "code": "mg/dL", 
                    "system": "http://unitsofmeasure.org", 
                    "unit": "mg/dL", 
                    "value": 9.1
                }
            }
        }, 
        {
            "request": {
                "method": "PUT", 
                "url": "Observation/ehealth-2333-lab"
            }, 
            "resource": {
                "category": [
                    {
                        "coding": [
                            {
                                "code": "laboratory", 
                                "display": "Laboratory", 
                                "system": "http://hl7.org/fhir/observation-category"
                            }
                        ], 
                        "text": "Laboratory"
                    }
                ], 
                "code": {
                    "coding": [
                        {
                            "code": "2160-0", 
                            "display": "Creat SerPl-mCnc", 
                            "system": "http://loinc.org"
                        }
                    ], 
                    "text": "Creat SerPl-mCnc"
                }, 
                "effectiveDateTime": "2009-08-30", 
                "id": "ehealth-2333-lab", 
                "identifier": [
                    {
                        "system": "http://www.bmc.nl/zorgportal/identifiers/observations", 
                        "use": "official", 
                        "value": "ehealth-2333-lab"
                    }
                ], 
                "performer": [
                    {
                        "reference": "Practitioner/ehealth-Practitioner-71614502"
                    }
                ], 
                "referenceRange": [
                    {
                        "high": {
                            "code": "mg/dL", 
                            "system": "http://unitsofmeasure.org", 
                            "unit": "mg/dL", 
                            "value": 1.4
                        }, 
                        "low": {
                            "code": "mg/dL", 
                            "system": "http://unitsofmeasure.org", 
                            "unit": "mg/dL", 
                            "value": 0.8
                        }, 
                        "type": {
                            "coding": [
                                {
                                    "code": "normal", 
                                    "display": "Normal Range", 
                                    "system": "http://hl7.org/fhir/referencerange-meaning"
                                }
                            ], 
                            "text": "Normal Range"
                        }
                    }
                ], 
                "resourceType": "Observation", 
                "status": "unknown", 
                "subject": {
                    "reference": "Patient/ehealth-1869612"
                }, 
                "text": {
                    "div": "<div xmlns=\"http://www.w3.org/1999/xhtml\">2009-08-30: Creat SerPl-mCnc = 0.86 mg/dL</div>", 
                    "status": "generated"
                }, 
                "valueQuantity": {
                    "code": "mg/dL", 
                    "system": "http://unitsofmeasure.org", 
                    "unit": "mg/dL", 
                    "value": 0.86
                }
            }
        }, 
        {
            "request": {
                "method": "PUT", 
                "url": "Observation/ehealth-2334-lab"
            }, 
            "resource": {
                "category": [
                    {
                        "coding": [
                            {
                                "code": "laboratory", 
                                "display": "Laboratory", 
                                "system": "http://hl7.org/fhir/observation-category"
                            }
                        ], 
                        "text": "Laboratory"
                    }
                ], 
                "code": {
                    "coding": [
                        {
                            "code": "9318-7", 
                            "display": "Albumin/Creat Ur-mRto", 
                            "system": "http://loinc.org"
                        }
                    ], 
                    "text": "Albumin/Creat Ur-mRto"
                }, 
                "effectiveDateTime": "2009-08-30", 
                "id": "ehealth-2334-lab", 
                "identifier": [
                    {
                        "system": "http://www.bmc.nl/zorgportal/identifiers/observations", 
                        "use": "official", 
                        "value": "ehealth-2334-lab"
                    }
                ], 
                "performer": [
                    {
                        "reference": "Practitioner/ehealth-Practitioner-71614502"
                    }
                ], 
                "referenceRange": [
                    {
                        "high": {
                            "code": "ug/mg{creat}", 
                            "system": "http://unitsofmeasure.org", 
                            "unit": "ug/mg{creat}", 
                            "value": 29.0
                        }, 
                        "low": {
                            "code": "ug/mg{creat}", 
                            "system": "http://unitsofmeasure.org", 
                            "unit": "ug/mg{creat}", 
                            "value": 0.0
                        }, 
                        "type": {
                            "coding": [
                                {
                                    "code": "normal", 
                                    "display": "Normal Range", 
                                    "system": "http://hl7.org/fhir/referencerange-meaning"
                                }
                            ], 
                            "text": "Normal Range"
                        }
                    }
                ], 
                "resourceType": "Observation", 
                "status": "unknown", 
                "subject": {
                    "reference": "Patient/ehealth-1869612"
                }, 
                "text": {
                    "div": "<div xmlns=\"http://www.w3.org/1999/xhtml\">2009-08-30: Albumin/Creat Ur-mRto = 8 ug/mg{creat}</div>", 
                    "status": "generated"
                }, 
                "valueQuantity": {
                    "code": "ug/mg{creat}", 
                    "system": "http://unitsofmeasure.org", 
                    "unit": "ug/mg{creat}", 
                    "value": 8.0
                }
            }
        }, 
        {
            "request": {
                "method": "PUT", 
                "url": "Observation/ehealth-2335-lab"
            }, 
            "resource": {
                "category": [
                    {
                        "coding": [
                            {
                                "code": "laboratory", 
                                "display": "Laboratory", 
                                "system": "http://hl7.org/fhir/observation-category"
                            }
                        ], 
                        "text": "Laboratory"
                    }
                ], 
                "code": {
                    "coding": [
                        {
                            "code": "2085-9", 
                            "display": "HDLc SerPl-mCnc", 
                            "system": "http://loinc.org"
                        }
                    ], 
                    "text": "HDLc SerPl-mCnc"
                }, 
                "effectiveDateTime": "2009-08-30", 
                "id": "ehealth-2335-lab", 
                "identifier": [
                    {
                        "system": "http://www.bmc.nl/zorgportal/identifiers/observations", 
                        "use": "official", 
                        "value": "ehealth-2335-lab"
                    }
                ], 
                "performer": [
                    {
                        "reference": "Practitioner/ehealth-Practitioner-71614502"
                    }
                ], 
                "referenceRange": [
                    {
                        "high": {
                            "code": "mg/dL", 
                            "system": "http://unitsofmeasure.org", 
                            "unit": "mg/dL", 
                            "value": 0.0
                        }, 
                        "low": {
                            "code": "mg/dL", 
                            "system": "http://unitsofmeasure.org", 
                            "unit": "mg/dL", 
                            "value": 0.0
                        }, 
                        "type": {
                            "coding": [
                                {
                                    "code": "normal", 
                                    "display": "Normal Range", 
                                    "system": "http://hl7.org/fhir/referencerange-meaning"
                                }
                            ], 
                            "text": "Normal Range"
                        }
                    }
                ], 
                "resourceType": "Observation", 
                "status": "unknown", 
                "subject": {
                    "reference": "Patient/ehealth-1869612"
                }, 
                "text": {
                    "div": "<div xmlns=\"http://www.w3.org/1999/xhtml\">2009-08-30: HDLc SerPl-mCnc = 25 mg/dL</div>", 
                    "status": "generated"
                }, 
                "valueQuantity": {
                    "code": "mg/dL", 
                    "system": "http://unitsofmeasure.org", 
                    "unit": "mg/dL", 
                    "value": 25.0
                }
            }
        }, 
        {
            "request": {
                "method": "PUT", 
                "url": "Observation/ehealth-2336-lab"
            }, 
            "resource": {
                "category": [
                    {
                        "coding": [
                            {
                                "code": "laboratory", 
                                "display": "Laboratory", 
                                "system": "http://hl7.org/fhir/observation-category"
                            }
                        ], 
                        "text": "Laboratory"
                    }
                ], 
                "code": {
                    "coding": [
                        {
                            "code": "13457-7", 
                            "display": "LDLc SerPl Calc-mCnc", 
                            "system": "http://loinc.org"
                        }
                    ], 
                    "text": "LDLc SerPl Calc-mCnc"
                }, 
                "effectiveDateTime": "2009-08-30", 
                "id": "ehealth-2336-lab", 
                "identifier": [
                    {
                        "system": "http://www.bmc.nl/zorgportal/identifiers/observations", 
                        "use": "official", 
                        "value": "ehealth-2336-lab"
                    }
                ], 
                "performer": [
                    {
                        "reference": "Practitioner/ehealth-Practitioner-71614502"
                    }
                ], 
                "referenceRange": [
                    {
                        "high": {
                            "code": "mg/dL", 
                            "system": "http://unitsofmeasure.org", 
                            "unit": "mg/dL", 
                            "value": 100.0
                        }, 
                        "low": {
                            "code": "mg/dL", 
                            "system": "http://unitsofmeasure.org", 
                            "unit": "mg/dL", 
                            "value": 0.0
                        }, 
                        "type": {
                            "coding": [
                                {
                                    "code": "normal", 
                                    "display": "Normal Range", 
                                    "system": "http://hl7.org/fhir/referencerange-meaning"
                                }
                            ], 
                            "text": "Normal Range"
                        }
                    }
                ], 
                "resourceType": "Observation", 
                "status": "unknown", 
                "subject": {
                    "reference": "Patient/ehealth-1869612"
                }, 
                "text": {
                    "div": "<div xmlns=\"http://www.w3.org/1999/xhtml\">2009-08-30: LDLc SerPl Calc-mCnc = 124 mg/dL</div>", 
                    "status": "generated"
                }, 
                "valueQuantity": {
                    "code": "mg/dL", 
                    "system": "http://unitsofmeasure.org", 
                    "unit": "mg/dL", 
                    "value": 124.0
                }
            }
        }, 
        {
            "request": {
                "method": "PUT", 
                "url": "Observation/ehealth-2337-lab"
            }, 
            "resource": {
                "category": [
                    {
                        "coding": [
                            {
                                "code": "laboratory", 
                                "display": "Laboratory", 
                                "system": "http://hl7.org/fhir/observation-category"
                            }
                        ], 
                        "text": "Laboratory"
                    }
                ], 
                "code": {
                    "coding": [
                        {
                            "code": "10466-1", 
                            "display": "Anion Gap3 SerPl-sCnc", 
                            "system": "http://loinc.org"
                        }
                    ], 
                    "text": "Anion Gap3 SerPl-sCnc"
                }, 
                "effectiveDateTime": "2009-08-30", 
                "id": "ehealth-2337-lab", 
                "identifier": [
                    {
                        "system": "http://www.bmc.nl/zorgportal/identifiers/observations", 
                        "use": "official", 
                        "value": "ehealth-2337-lab"
                    }
                ], 
                "performer": [
                    {
                        "reference": "Practitioner/ehealth-Practitioner-71614502"
                    }
                ], 
                "referenceRange": [
                    {
                        "high": {
                            "code": "mmol/L", 
                            "system": "http://unitsofmeasure.org", 
                            "unit": "mmol/L", 
                            "value": 0.0
                        }, 
                        "low": {
                            "code": "mmol/L", 
                            "system": "http://unitsofmeasure.org", 
                            "unit": "mmol/L", 
                            "value": 0.0
                        }, 
                        "type": {
                            "coding": [
                                {
                                    "code": "normal", 
                                    "display": "Normal Range", 
                                    "system": "http://hl7.org/fhir/referencerange-meaning"
                                }
                            ], 
                            "text": "Normal Range"
                        }
                    }
                ], 
                "resourceType": "Observation", 
                "status": "unknown", 
                "subject": {
                    "reference": "Patient/ehealth-1869612"
                }, 
                "text": {
                    "div": "<div xmlns=\"http://www.w3.org/1999/xhtml\">2009-08-30: Anion Gap3 SerPl-sCnc = 8 mmol/L</div>", 
                    "status": "generated"
                }, 
                "valueQuantity": {
                    "code": "mmol/L", 
                    "system": "http://unitsofmeasure.org", 
                    "unit": "mmol/L", 
                    "value": 8.0
                }
            }
        }, 
        {
            "request": {
                "method": "PUT", 
                "url": "Observation/ehealth-2338-lab"
            }, 
            "resource": {
                "category": [
                    {
                        "coding": [
                            {
                                "code": "laboratory", 
                                "display": "Laboratory", 
                                "system": "http://hl7.org/fhir/observation-category"
                            }
                        ], 
                        "text": "Laboratory"
                    }
                ], 
                "code": {
                    "coding": [
                        {
                            "code": "2857-1", 
                            "display": "PSA SerPl-mCnc", 
                            "system": "http://loinc.org"
                        }
                    ], 
                    "text": "PSA SerPl-mCnc"
                }, 
                "effectiveDateTime": "2009-08-30", 
                "id": "ehealth-2338-lab", 
                "identifier": [
                    {
                        "system": "http://www.bmc.nl/zorgportal/identifiers/observations", 
                        "use": "official", 
                        "value": "ehealth-2338-lab"
                    }
                ], 
                "performer": [
                    {
                        "reference": "Practitioner/ehealth-Practitioner-71614502"
                    }
                ], 
                "referenceRange": [
                    {
                        "high": {
                            "code": "ng/mL", 
                            "system": "http://unitsofmeasure.org", 
                            "unit": "ng/mL", 
                            "value": 0.0
                        }, 
                        "low": {
                            "code": "ng/mL", 
                            "system": "http://unitsofmeasure.org", 
                            "unit": "ng/mL", 
                            "value": 0.0
                        }, 
                        "type": {
                            "coding": [
                                {
                                    "code": "normal", 
                                    "display": "Normal Range", 
                                    "system": "http://hl7.org/fhir/referencerange-meaning"
                                }
                            ], 
                            "text": "Normal Range"
                        }
                    }
                ], 
                "resourceType": "Observation", 
                "status": "unknown", 
                "subject": {
                    "reference": "Patient/ehealth-1869612"
                }, 
                "text": {
                    "div": "<div xmlns=\"http://www.w3.org/1999/xhtml\">2009-08-30: PSA SerPl-mCnc = 0.331 ng/mL</div>", 
                    "status": "generated"
                }, 
                "valueQuantity": {
                    "code": "ng/mL", 
                    "system": "http://unitsofmeasure.org", 
                    "unit": "ng/mL", 
                    "value": 0.331
                }
            }
        }, 
        {
            "request": {
                "method": "PUT", 
                "url": "Observation/ehealth-2339-lab"
            }, 
            "resource": {
                "category": [
                    {
                        "coding": [
                            {
                                "code": "laboratory", 
                                "display": "Laboratory", 
                                "system": "http://hl7.org/fhir/observation-category"
                            }
                        ], 
                        "text": "Laboratory"
                    }
                ], 
                "code": {
                    "coding": [
                        {
                            "code": "2345-7", 
                            "display": "Glucose SerPl-mCnc", 
                            "system": "http://loinc.org"
                        }
                    ], 
                    "text": "Glucose SerPl-mCnc"
                }, 
                "effectiveDateTime": "2009-08-30", 
                "id": "ehealth-2339-lab", 
                "identifier": [
                    {
                        "system": "http://www.bmc.nl/zorgportal/identifiers/observations", 
                        "use": "official", 
                        "value": "ehealth-2339-lab"
                    }
                ], 
                "performer": [
                    {
                        "reference": "Practitioner/ehealth-Practitioner-71614502"
                    }
                ], 
                "referenceRange": [
                    {
                        "high": {
                            "code": "mg/dL", 
                            "system": "http://unitsofmeasure.org", 
                            "unit": "mg/dL", 
                            "value": 99.0
                        }, 
                        "low": {
                            "code": "mg/dL", 
                            "system": "http://unitsofmeasure.org", 
                            "unit": "mg/dL", 
                            "value": 70.0
                        }, 
                        "type": {
                            "coding": [
                                {
                                    "code": "normal", 
                                    "display": "Normal Range", 
                                    "system": "http://hl7.org/fhir/referencerange-meaning"
                                }
                            ], 
                            "text": "Normal Range"
                        }
                    }
                ], 
                "resourceType": "Observation", 
                "status": "unknown", 
                "subject": {
                    "reference": "Patient/ehealth-1869612"
                }, 
                "text": {
                    "div": "<div xmlns=\"http://www.w3.org/1999/xhtml\">2009-08-30: Glucose SerPl-mCnc = 157 mg/dL</div>", 
                    "status": "generated"
                }, 
                "valueQuantity": {
                    "code": "mg/dL", 
                    "system": "http://unitsofmeasure.org", 
                    "unit": "mg/dL", 
                    "value": 157.0
                }
            }
        }, 
        {
            "request": {
                "method": "PUT", 
                "url": "Observation/ehealth-2340-lab"
            }, 
            "resource": {
                "category": [
                    {
                        "coding": [
                            {
                                "code": "laboratory", 
                                "display": "Laboratory", 
                                "system": "http://hl7.org/fhir/observation-category"
                            }
                        ], 
                        "text": "Laboratory"
                    }
                ], 
                "code": {
                    "coding": [
                        {
                            "code": "3094-0", 
                            "display": "BUN SerPl-mCnc", 
                            "system": "http://loinc.org"
                        }
                    ], 
                    "text": "BUN SerPl-mCnc"
                }, 
                "effectiveDateTime": "2009-08-30", 
                "id": "ehealth-2340-lab", 
                "identifier": [
                    {
                        "system": "http://www.bmc.nl/zorgportal/identifiers/observations", 
                        "use": "official", 
                        "value": "ehealth-2340-lab"
                    }
                ], 
                "performer": [
                    {
                        "reference": "Practitioner/ehealth-Practitioner-71614502"
                    }
                ], 
                "referenceRange": [
                    {
                        "high": {
                            "code": "mg/dL", 
                            "system": "http://unitsofmeasure.org", 
                            "unit": "mg/dL", 
                            "value": 20.0
                        }, 
                        "low": {
                            "code": "mg/dL", 
                            "system": "http://unitsofmeasure.org", 
                            "unit": "mg/dL", 
                            "value": 5.0
                        }, 
                        "type": {
                            "coding": [
                                {
                                    "code": "normal", 
                                    "display": "Normal Range", 
                                    "system": "http://hl7.org/fhir/referencerange-meaning"
                                }
                            ], 
                            "text": "Normal Range"
                        }
                    }
                ], 
                "resourceType": "Observation", 
                "status": "unknown", 
                "subject": {
                    "reference": "Patient/ehealth-1869612"
                }, 
                "text": {
                    "div": "<div xmlns=\"http://www.w3.org/1999/xhtml\">2009-08-30: BUN SerPl-mCnc = 15 mg/dL</div>", 
                    "status": "generated"
                }, 
                "valueQuantity": {
                    "code": "mg/dL", 
                    "system": "http://unitsofmeasure.org", 
                    "unit": "mg/dL", 
                    "value": 15.0
                }
            }
        }, 
        {
            "request": {
                "method": "PUT", 
                "url": "Observation/ehealth-2341-lab"
            }, 
            "resource": {
                "category": [
                    {
                        "coding": [
                            {
                                "code": "laboratory", 
                                "display": "Laboratory", 
                                "system": "http://hl7.org/fhir/observation-category"
                            }
                        ], 
                        "text": "Laboratory"
                    }
                ], 
                "code": {
                    "coding": [
                        {
                            "code": "2571-8", 
                            "display": "Trigl SerPl-mCnc", 
                            "system": "http://loinc.org"
                        }
                    ], 
                    "text": "Trigl SerPl-mCnc"
                }, 
                "effectiveDateTime": "2009-08-30", 
                "id": "ehealth-2341-lab", 
                "identifier": [
                    {
                        "system": "http://www.bmc.nl/zorgportal/identifiers/observations", 
                        "use": "official", 
                        "value": "ehealth-2341-lab"
                    }
                ], 
                "performer": [
                    {
                        "reference": "Practitioner/ehealth-Practitioner-71614502"
                    }
                ], 
                "referenceRange": [
                    {
                        "high": {
                            "code": "mg/dL", 
                            "system": "http://unitsofmeasure.org", 
                            "unit": "mg/dL", 
                            "value": 150.0
                        }, 
                        "low": {
                            "code": "mg/dL", 
                            "system": "http://unitsofmeasure.org", 
                            "unit": "mg/dL", 
                            "value": 0.0
                        }, 
                        "type": {
                            "coding": [
                                {
                                    "code": "normal", 
                                    "display": "Normal Range", 
                                    "system": "http://hl7.org/fhir/referencerange-meaning"
                                }
                            ], 
                            "text": "Normal Range"
                        }
                    }
                ], 
                "resourceType": "Observation", 
                "status": "unknown", 
                "subject": {
                    "reference": "Patient/ehealth-1869612"
                }, 
                "text": {
                    "div": "<div xmlns=\"http://www.w3.org/1999/xhtml\">2009-08-30: Trigl SerPl-mCnc = 78 mg/dL</div>", 
                    "status": "generated"
                }, 
                "valueQuantity": {
                    "code": "mg/dL", 
                    "system": "http://unitsofmeasure.org", 
                    "unit": "mg/dL", 
                    "value": 78.0
                }
            }
        }, 
        {
            "request": {
                "method": "PUT", 
                "url": "Observation/ehealth-2342-lab"
            }, 
            "resource": {
                "category": [
                    {
                        "coding": [
                            {
                                "code": "laboratory", 
                                "display": "Laboratory", 
                                "system": "http://hl7.org/fhir/observation-category"
                            }
                        ], 
                        "text": "Laboratory"
                    }
                ], 
                "code": {
                    "coding": [
                        {
                            "code": "2093-3", 
                            "display": "Cholest SerPl-mCnc", 
                            "system": "http://loinc.org"
                        }
                    ], 
                    "text": "Cholest SerPl-mCnc"
                }, 
                "effectiveDateTime": "2009-08-30", 
                "id": "ehealth-2342-lab", 
                "identifier": [
                    {
                        "system": "http://www.bmc.nl/zorgportal/identifiers/observations", 
                        "use": "official", 
                        "value": "ehealth-2342-lab"
                    }
                ], 
                "performer": [
                    {
                        "reference": "Practitioner/ehealth-Practitioner-71614502"
                    }
                ], 
                "referenceRange": [
                    {
                        "high": {
                            "code": "mg/dL", 
                            "system": "http://unitsofmeasure.org", 
                            "unit": "mg/dL", 
                            "value": 200.0
                        }, 
                        "low": {
                            "code": "mg/dL", 
                            "system": "http://unitsofmeasure.org", 
                            "unit": "mg/dL", 
                            "value": 0.0
                        }, 
                        "type": {
                            "coding": [
                                {
                                    "code": "normal", 
                                    "display": "Normal Range", 
                                    "system": "http://hl7.org/fhir/referencerange-meaning"
                                }
                            ], 
                            "text": "Normal Range"
                        }
                    }
                ], 
                "resourceType": "Observation", 
                "status": "unknown", 
                "subject": {
                    "reference": "Patient/ehealth-1869612"
                }, 
                "text": {
                    "div": "<div xmlns=\"http://www.w3.org/1999/xhtml\">2009-08-30: Cholest SerPl-mCnc = 165 mg/dL</div>", 
                    "status": "generated"
                }, 
                "valueQuantity": {
                    "code": "mg/dL", 
                    "system": "http://unitsofmeasure.org", 
                    "unit": "mg/dL", 
                    "value": 165.0
                }
            }
        }, 
        {
            "request": {
                "method": "PUT", 
                "url": "Observation/ehealth-2343-lab"
            }, 
            "resource": {
                "category": [
                    {
                        "coding": [
                            {
                                "code": "laboratory", 
                                "display": "Laboratory", 
                                "system": "http://hl7.org/fhir/observation-category"
                            }
                        ], 
                        "text": "Laboratory"
                    }
                ], 
                "code": {
                    "coding": [
                        {
                            "code": "2823-3", 
                            "display": "Potassium SerPl-sCnc", 
                            "system": "http://loinc.org"
                        }
                    ], 
                    "text": "Potassium SerPl-sCnc"
                }, 
                "effectiveDateTime": "2009-08-30", 
                "id": "ehealth-2343-lab", 
                "identifier": [
                    {
                        "system": "http://www.bmc.nl/zorgportal/identifiers/observations", 
                        "use": "official", 
                        "value": "ehealth-2343-lab"
                    }
                ], 
                "performer": [
                    {
                        "reference": "Practitioner/ehealth-Practitioner-71614502"
                    }
                ], 
                "referenceRange": [
                    {
                        "high": {
                            "code": "mmol/L", 
                            "system": "http://unitsofmeasure.org", 
                            "unit": "mmol/L", 
                            "value": 5.5
                        }, 
                        "low": {
                            "code": "mmol/L", 
                            "system": "http://unitsofmeasure.org", 
                            "unit": "mmol/L", 
                            "value": 3.5
                        }, 
                        "type": {
                            "coding": [
                                {
                                    "code": "normal", 
                                    "display": "Normal Range", 
                                    "system": "http://hl7.org/fhir/referencerange-meaning"
                                }
                            ], 
                            "text": "Normal Range"
                        }
                    }
                ], 
                "resourceType": "Observation", 
                "status": "unknown", 
                "subject": {
                    "reference": "Patient/ehealth-1869612"
                }, 
                "text": {
                    "div": "<div xmlns=\"http://www.w3.org/1999/xhtml\">2009-08-30: Potassium SerPl-sCnc = 3.5 mmol/L</div>", 
                    "status": "generated"
                }, 
                "valueQuantity": {
                    "code": "mmol/L", 
                    "system": "http://unitsofmeasure.org", 
                    "unit": "mmol/L", 
                    "value": 3.5
                }
            }
        }, 
        {
            "request": {
                "method": "PUT", 
                "url": "Observation/ehealth-2344-lab"
            }, 
            "resource": {
                "category": [
                    {
                        "coding": [
                            {
                                "code": "laboratory", 
                                "display": "Laboratory", 
                                "system": "http://hl7.org/fhir/observation-category"
                            }
                        ], 
                        "text": "Laboratory"
                    }
                ], 
                "code": {
                    "coding": [
                        {
                            "code": "2075-0", 
                            "display": "Chloride SerPl-sCnc", 
                            "system": "http://loinc.org"
                        }
                    ], 
                    "text": "Chloride SerPl-sCnc"
                }, 
                "effectiveDateTime": "2009-08-30", 
                "id": "ehealth-2344-lab", 
                "identifier": [
                    {
                        "system": "http://www.bmc.nl/zorgportal/identifiers/observations", 
                        "use": "official", 
                        "value": "ehealth-2344-lab"
                    }
                ], 
                "performer": [
                    {
                        "reference": "Practitioner/ehealth-Practitioner-71614502"
                    }
                ], 
                "referenceRange": [
                    {
                        "high": {
                            "code": "mmol/L", 
                            "system": "http://unitsofmeasure.org", 
                            "unit": "mmol/L", 
                            "value": 108.0
                        }, 
                        "low": {
                            "code": "mmol/L", 
                            "system": "http://unitsofmeasure.org", 
                            "unit": "mmol/L", 
                            "value": 98.0
                        }, 
                        "type": {
                            "coding": [
                                {
                                    "code": "normal", 
                                    "display": "Normal Range", 
                                    "system": "http://hl7.org/fhir/referencerange-meaning"
                                }
                            ], 
                            "text": "Normal Range"
                        }
                    }
                ], 
                "resourceType": "Observation", 
                "status": "unknown", 
                "subject": {
                    "reference": "Patient/ehealth-1869612"
                }, 
                "text": {
                    "div": "<div xmlns=\"http://www.w3.org/1999/xhtml\">2009-08-30: Chloride SerPl-sCnc = 99 mmol/L</div>", 
                    "status": "generated"
                }, 
                "valueQuantity": {
                    "code": "mmol/L", 
                    "system": "http://unitsofmeasure.org", 
                    "unit": "mmol/L", 
                    "value": 99.0
                }
            }
        }, 
        {
            "request": {
                "method": "PUT", 
                "url": "Observation/ehealth-2345-lab"
            }, 
            "resource": {
                "category": [
                    {
                        "coding": [
                            {
                                "code": "laboratory", 
                                "display": "Laboratory", 
                                "system": "http://hl7.org/fhir/observation-category"
                            }
                        ], 
                        "text": "Laboratory"
                    }
                ], 
                "code": {
                    "coding": [
                        {
                            "code": "2028-9", 
                            "display": "CO2 SerPl-sCnc", 
                            "system": "http://loinc.org"
                        }
                    ], 
                    "text": "CO2 SerPl-sCnc"
                }, 
                "effectiveDateTime": "2009-08-30", 
                "id": "ehealth-2345-lab", 
                "identifier": [
                    {
                        "system": "http://www.bmc.nl/zorgportal/identifiers/observations", 
                        "use": "official", 
                        "value": "ehealth-2345-lab"
                    }
                ], 
                "performer": [
                    {
                        "reference": "Practitioner/ehealth-Practitioner-71614502"
                    }
                ], 
                "referenceRange": [
                    {
                        "high": {
                            "code": "mmol/L", 
                            "system": "http://unitsofmeasure.org", 
                            "unit": "mmol/L", 
                            "value": 29.0
                        }, 
                        "low": {
                            "code": "mmol/L", 
                            "system": "http://unitsofmeasure.org", 
                            "unit": "mmol/L", 
                            "value": 22.0
                        }, 
                        "type": {
                            "coding": [
                                {
                                    "code": "normal", 
                                    "display": "Normal Range", 
                                    "system": "http://hl7.org/fhir/referencerange-meaning"
                                }
                            ], 
                            "text": "Normal Range"
                        }
                    }
                ], 
                "resourceType": "Observation", 
                "status": "unknown", 
                "subject": {
                    "reference": "Patient/ehealth-1869612"
                }, 
                "text": {
                    "div": "<div xmlns=\"http://www.w3.org/1999/xhtml\">2009-08-30: CO2 SerPl-sCnc = 29 mmol/L</div>", 
                    "status": "generated"
                }, 
                "valueQuantity": {
                    "code": "mmol/L", 
                    "system": "http://unitsofmeasure.org", 
                    "unit": "mmol/L", 
                    "value": 29.0
                }
            }
        }, 
        {
            "request": {
                "method": "PUT", 
                "url": "Observation/ehealth-2346-lab"
            }, 
            "resource": {
                "category": [
                    {
                        "coding": [
                            {
                                "code": "laboratory", 
                                "display": "Laboratory", 
                                "system": "http://hl7.org/fhir/observation-category"
                            }
                        ], 
                        "text": "Laboratory"
                    }
                ], 
                "code": {
                    "coding": [
                        {
                            "code": "2951-2", 
                            "display": "Sodium SerPl-sCnc", 
                            "system": "http://loinc.org"
                        }
                    ], 
                    "text": "Sodium SerPl-sCnc"
                }, 
                "effectiveDateTime": "2009-08-30", 
                "id": "ehealth-2346-lab", 
                "identifier": [
                    {
                        "system": "http://www.bmc.nl/zorgportal/identifiers/observations", 
                        "use": "official", 
                        "value": "ehealth-2346-lab"
                    }
                ], 
                "performer": [
                    {
                        "reference": "Practitioner/ehealth-Practitioner-71614502"
                    }
                ], 
                "referenceRange": [
                    {
                        "high": {
                            "code": "mmol/L", 
                            "system": "http://unitsofmeasure.org", 
                            "unit": "mmol/L", 
                            "value": 145.0
                        }, 
                        "low": {
                            "code": "mmol/L", 
                            "system": "http://unitsofmeasure.org", 
                            "unit": "mmol/L", 
                            "value": 135.0
                        }, 
                        "type": {
                            "coding": [
                                {
                                    "code": "normal", 
                                    "display": "Normal Range", 
                                    "system": "http://hl7.org/fhir/referencerange-meaning"
                                }
                            ], 
                            "text": "Normal Range"
                        }
                    }
                ], 
                "resourceType": "Observation", 
                "status": "unknown", 
                "subject": {
                    "reference": "Patient/ehealth-1869612"
                }, 
                "text": {
                    "div": "<div xmlns=\"http://www.w3.org/1999/xhtml\">2009-08-30: Sodium SerPl-sCnc = 136 mmol/L</div>", 
                    "status": "generated"
                }, 
                "valueQuantity": {
                    "code": "mmol/L", 
                    "system": "http://unitsofmeasure.org", 
                    "unit": "mmol/L", 
                    "value": 136.0
                }
            }
        }, 
        {
            "request": {
                "method": "PUT", 
                "url": "Observation/ehealth-2347-lab"
            }, 
            "resource": {
                "category": [
                    {
                        "coding": [
                            {
                                "code": "laboratory", 
                                "display": "Laboratory", 
                                "system": "http://hl7.org/fhir/observation-category"
                            }
                        ], 
                        "text": "Laboratory"
                    }
                ], 
                "code": {
                    "coding": [
                        {
                            "code": "30522-7", 
                            "display": "CRP SerPl HS-mCnc", 
                            "system": "http://loinc.org"
                        }
                    ], 
                    "text": "CRP SerPl HS-mCnc"
                }, 
                "effectiveDateTime": "2007-08-01", 
                "id": "ehealth-2347-lab", 
                "identifier": [
                    {
                        "system": "http://www.bmc.nl/zorgportal/identifiers/observations", 
                        "use": "official", 
                        "value": "ehealth-2347-lab"
                    }
                ], 
                "performer": [
                    {
                        "reference": "Practitioner/ehealth-Practitioner-71614502"
                    }
                ], 
                "referenceRange": [
                    {
                        "high": {
                            "code": "mg/L", 
                            "system": "http://unitsofmeasure.org", 
                            "unit": "mg/L", 
                            "value": 3.0
                        }, 
                        "low": {
                            "code": "mg/L", 
                            "system": "http://unitsofmeasure.org", 
                            "unit": "mg/L", 
                            "value": 0.0
                        }, 
                        "type": {
                            "coding": [
                                {
                                    "code": "normal", 
                                    "display": "Normal Range", 
                                    "system": "http://hl7.org/fhir/referencerange-meaning"
                                }
                            ], 
                            "text": "Normal Range"
                        }
                    }
                ], 
                "resourceType": "Observation", 
                "status": "unknown", 
                "subject": {
                    "reference": "Patient/ehealth-1869612"
                }, 
                "text": {
                    "div": "<div xmlns=\"http://www.w3.org/1999/xhtml\">2007-08-01: CRP SerPl HS-mCnc = 0.4 mg/L</div>", 
                    "status": "generated"
                }, 
                "valueQuantity": {
                    "code": "mg/L", 
                    "system": "http://unitsofmeasure.org", 
                    "unit": "mg/L", 
                    "value": 0.4
                }
            }
        }, 
        {
            "request": {
                "method": "PUT", 
                "url": "MedicationRequest/ehealth-MedicationRequest-210"
            }, 
            "resource": {
                "dispenseRequest": {
                    "expectedSupplyDuration": {
                        "code": "d", 
                        "system": "http://unitsofmeasure.org", 
                        "unit": "days", 
                        "value": 30
                    }, 
                    "numberOfRepeatsAllowed": 1, 
                    "quantity": {
                        "code": "{tablet}", 
                        "system": "http://unitsofmeasure.org", 
                        "unit": "{tablet}", 
                        "value": 30.0
                    }
                }, 
                "dosageInstruction": [
                    {
                        "doseQuantity": {
                            "code": "{tablet}", 
                            "system": "http://unitsofmeasure.org", 
                            "unit": "{tablet}", 
                            "value": 1.0
                        }, 
                        "text": "1 daily", 
                        "timing": {
                            "repeat": {
                                "boundsPeriod": {
                                    "start": "2003-10-27"
                                }, 
                                "frequency": 1, 
                                "period": 1, 
                                "periodUnit": "d"
                            }
                        }
                    }
                ], 
                "id": "ehealth-MedicationRequest-210", 
                "intent": "order", 
                "medicationCodeableConcept": {
                    "coding": [
                        {
                            "code": "153666", 
                            "display": "irbesartan 150 MG Oral Tablet [Avapro]", 
                            "system": "http://www.nlm.nih.gov/research/umls/rxnorm"
                        }
                    ], 
                    "text": "irbesartan 150 MG Oral Tablet [Avapro]"
                }, 
                "resourceType": "MedicationRequest", 
                "status": "active", 
                "subject": {
                    "reference": "Patient/ehealth-1869612"
                }, 
                "text": {
                    "div": "<div xmlns=\"http://www.w3.org/1999/xhtml\">irbesartan 150 MG Oral Tablet [Avapro] (rxnorm: 153666)</div>", 
                    "status": "generated"
                }
            }
        }, 
        {
            "request": {
                "method": "PUT", 
                "url": "MedicationDispense/ehealth-MedicationDispense-1183"
            }, 
            "resource": {
                "authorizingPrescription": [
                    {
                        "reference": "MedicationRequest/ehealth-MedicationRequest-210"
                    }
                ], 
                "daysSupply": {
                    "code": "d", 
                    "system": "http://unitsofmeasure.org", 
                    "unit": "days", 
                    "value": 30
                }, 
                "id": "ehealth-MedicationDispense-1183", 
                "medicationCodeableConcept": {
                    "coding": [
                        {
                            "code": "153666", 
                            "display": "irbesartan 150 MG Oral Tablet [Avapro]", 
                            "system": "http://www.nlm.nih.gov/research/umls/rxnorm"
                        }
                    ], 
                    "text": "irbesartan 150 MG Oral Tablet [Avapro]"
                }, 
                "quantity": {
                    "code": "{tablets}", 
                    "system": "http://unitsofmeasure.org", 
                    "unit": "tablets", 
                    "value": 30.0
                }, 
                "resourceType": "MedicationDispense", 
                "status": "completed", 
                "subject": {
                    "reference": "Patient/ehealth-1869612"
                }, 
                "text": {
                    "div": "<div xmlns=\"http://www.w3.org/1999/xhtml\">Dispensed 30 tablets = 30 day supply of irbesartan 150 MG Oral Tablet [Avapro]</div>", 
                    "status": "generated"
                }, 
                "whenHandedOver": "2003-11-29"
            }
        }, 
        {
            "request": {
                "method": "PUT", 
                "url": "MedicationDispense/ehealth-MedicationDispense-1198"
            }, 
            "resource": {
                "authorizingPrescription": [
                    {
                        "reference": "MedicationRequest/ehealth-MedicationRequest-210"
                    }
                ], 
                "daysSupply": {
                    "code": "d", 
                    "system": "http://unitsofmeasure.org", 
                    "unit": "days", 
                    "value": 30
                }, 
                "id": "ehealth-MedicationDispense-1198", 
                "medicationCodeableConcept": {
                    "coding": [
                        {
                            "code": "153666", 
                            "display": "irbesartan 150 MG Oral Tablet [Avapro]", 
                            "system": "http://www.nlm.nih.gov/research/umls/rxnorm"
                        }
                    ], 
                    "text": "irbesartan 150 MG Oral Tablet [Avapro]"
                }, 
                "quantity": {
                    "code": "{tablets}", 
                    "system": "http://unitsofmeasure.org", 
                    "unit": "tablets", 
                    "value": 30.0
                }, 
                "resourceType": "MedicationDispense", 
                "status": "completed", 
                "subject": {
                    "reference": "Patient/ehealth-1869612"
                }, 
                "text": {
                    "div": "<div xmlns=\"http://www.w3.org/1999/xhtml\">Dispensed 30 tablets = 30 day supply of irbesartan 150 MG Oral Tablet [Avapro]</div>", 
                    "status": "generated"
                }, 
                "whenHandedOver": "2005-03-08"
            }
        }, 
        {
            "request": {
                "method": "PUT", 
                "url": "MedicationDispense/ehealth-MedicationDispense-1193"
            }, 
            "resource": {
                "authorizingPrescription": [
                    {
                        "reference": "MedicationRequest/ehealth-MedicationRequest-210"
                    }
                ], 
                "daysSupply": {
                    "code": "d", 
                    "system": "http://unitsofmeasure.org", 
                    "unit": "days", 
                    "value": 30
                }, 
                "id": "ehealth-MedicationDispense-1193", 
                "medicationCodeableConcept": {
                    "coding": [
                        {
                            "code": "153666", 
                            "display": "irbesartan 150 MG Oral Tablet [Avapro]", 
                            "system": "http://www.nlm.nih.gov/research/umls/rxnorm"
                        }
                    ], 
                    "text": "irbesartan 150 MG Oral Tablet [Avapro]"
                }, 
                "quantity": {
                    "code": "{tablets}", 
                    "system": "http://unitsofmeasure.org", 
                    "unit": "tablets", 
                    "value": 30.0
                }, 
                "resourceType": "MedicationDispense", 
                "status": "completed", 
                "subject": {
                    "reference": "Patient/ehealth-1869612"
                }, 
                "text": {
                    "div": "<div xmlns=\"http://www.w3.org/1999/xhtml\">Dispensed 30 tablets = 30 day supply of irbesartan 150 MG Oral Tablet [Avapro]</div>", 
                    "status": "generated"
                }, 
                "whenHandedOver": "2004-10-08"
            }
        }, 
        {
            "request": {
                "method": "PUT", 
                "url": "MedicationDispense/ehealth-MedicationDispense-1195"
            }, 
            "resource": {
                "authorizingPrescription": [
                    {
                        "reference": "MedicationRequest/ehealth-MedicationRequest-210"
                    }
                ], 
                "daysSupply": {
                    "code": "d", 
                    "system": "http://unitsofmeasure.org", 
                    "unit": "days", 
                    "value": 30
                }, 
                "id": "ehealth-MedicationDispense-1195", 
                "medicationCodeableConcept": {
                    "coding": [
                        {
                            "code": "153666", 
                            "display": "irbesartan 150 MG Oral Tablet [Avapro]", 
                            "system": "http://www.nlm.nih.gov/research/umls/rxnorm"
                        }
                    ], 
                    "text": "irbesartan 150 MG Oral Tablet [Avapro]"
                }, 
                "quantity": {
                    "code": "{tablets}", 
                    "system": "http://unitsofmeasure.org", 
                    "unit": "tablets", 
                    "value": 30.0
                }, 
                "resourceType": "MedicationDispense", 
                "status": "completed", 
                "subject": {
                    "reference": "Patient/ehealth-1869612"
                }, 
                "text": {
                    "div": "<div xmlns=\"http://www.w3.org/1999/xhtml\">Dispensed 30 tablets = 30 day supply of irbesartan 150 MG Oral Tablet [Avapro]</div>", 
                    "status": "generated"
                }, 
                "whenHandedOver": "2004-12-13"
            }
        }, 
        {
            "request": {
                "method": "PUT", 
                "url": "MedicationDispense/ehealth-MedicationDispense-1204"
            }, 
            "resource": {
                "authorizingPrescription": [
                    {
                        "reference": "MedicationRequest/ehealth-MedicationRequest-210"
                    }
                ], 
                "daysSupply": {
                    "code": "d", 
                    "system": "http://unitsofmeasure.org", 
                    "unit": "days", 
                    "value": 30
                }, 
                "id": "ehealth-MedicationDispense-1204", 
                "medicationCodeableConcept": {
                    "coding": [
                        {
                            "code": "153666", 
                            "display": "irbesartan 150 MG Oral Tablet [Avapro]", 
                            "system": "http://www.nlm.nih.gov/research/umls/rxnorm"
                        }
                    ], 
                    "text": "irbesartan 150 MG Oral Tablet [Avapro]"
                }, 
                "quantity": {
                    "code": "{tablets}", 
                    "system": "http://unitsofmeasure.org", 
                    "unit": "tablets", 
                    "value": 30.0
                }, 
                "resourceType": "MedicationDispense", 
                "status": "completed", 
                "subject": {
                    "reference": "Patient/ehealth-1869612"
                }, 
                "text": {
                    "div": "<div xmlns=\"http://www.w3.org/1999/xhtml\">Dispensed 30 tablets = 30 day supply of irbesartan 150 MG Oral Tablet [Avapro]</div>", 
                    "status": "generated"
                }, 
                "whenHandedOver": "2005-09-26"
            }
        }, 
        {
            "request": {
                "method": "PUT", 
                "url": "MedicationDispense/ehealth-MedicationDispense-1203"
            }, 
            "resource": {
                "authorizingPrescription": [
                    {
                        "reference": "MedicationRequest/ehealth-MedicationRequest-210"
                    }
                ], 
                "daysSupply": {
                    "code": "d", 
                    "system": "http://unitsofmeasure.org", 
                    "unit": "days", 
                    "value": 30
                }, 
                "id": "ehealth-MedicationDispense-1203", 
                "medicationCodeableConcept": {
                    "coding": [
                        {
                            "code": "153666", 
                            "display": "irbesartan 150 MG Oral Tablet [Avapro]", 
                            "system": "http://www.nlm.nih.gov/research/umls/rxnorm"
                        }
                    ], 
                    "text": "irbesartan 150 MG Oral Tablet [Avapro]"
                }, 
                "quantity": {
                    "code": "{tablets}", 
                    "system": "http://unitsofmeasure.org", 
                    "unit": "tablets", 
                    "value": 30.0
                }, 
                "resourceType": "MedicationDispense", 
                "status": "completed", 
                "subject": {
                    "reference": "Patient/ehealth-1869612"
                }, 
                "text": {
                    "div": "<div xmlns=\"http://www.w3.org/1999/xhtml\">Dispensed 30 tablets = 30 day supply of irbesartan 150 MG Oral Tablet [Avapro]</div>", 
                    "status": "generated"
                }, 
                "whenHandedOver": "2005-08-28"
            }
        }, 
        {
            "request": {
                "method": "PUT", 
                "url": "MedicationDispense/ehealth-MedicationDispense-1190"
            }, 
            "resource": {
                "authorizingPrescription": [
                    {
                        "reference": "MedicationRequest/ehealth-MedicationRequest-210"
                    }
                ], 
                "daysSupply": {
                    "code": "d", 
                    "system": "http://unitsofmeasure.org", 
                    "unit": "days", 
                    "value": 30
                }, 
                "id": "ehealth-MedicationDispense-1190", 
                "medicationCodeableConcept": {
                    "coding": [
                        {
                            "code": "153666", 
                            "display": "irbesartan 150 MG Oral Tablet [Avapro]", 
                            "system": "http://www.nlm.nih.gov/research/umls/rxnorm"
                        }
                    ], 
                    "text": "irbesartan 150 MG Oral Tablet [Avapro]"
                }, 
                "quantity": {
                    "code": "{tablets}", 
                    "system": "http://unitsofmeasure.org", 
                    "unit": "tablets", 
                    "value": 30.0
                }, 
                "resourceType": "MedicationDispense", 
                "status": "completed", 
                "subject": {
                    "reference": "Patient/ehealth-1869612"
                }, 
                "text": {
                    "div": "<div xmlns=\"http://www.w3.org/1999/xhtml\">Dispensed 30 tablets = 30 day supply of irbesartan 150 MG Oral Tablet [Avapro]</div>", 
                    "status": "generated"
                }, 
                "whenHandedOver": "2004-07-04"
            }
        }, 
        {
            "request": {
                "method": "PUT", 
                "url": "MedicationDispense/ehealth-MedicationDispense-1184"
            }, 
            "resource": {
                "authorizingPrescription": [
                    {
                        "reference": "MedicationRequest/ehealth-MedicationRequest-210"
                    }
                ], 
                "daysSupply": {
                    "code": "d", 
                    "system": "http://unitsofmeasure.org", 
                    "unit": "days", 
                    "value": 30
                }, 
                "id": "ehealth-MedicationDispense-1184", 
                "medicationCodeableConcept": {
                    "coding": [
                        {
                            "code": "153666", 
                            "display": "irbesartan 150 MG Oral Tablet [Avapro]", 
                            "system": "http://www.nlm.nih.gov/research/umls/rxnorm"
                        }
                    ], 
                    "text": "irbesartan 150 MG Oral Tablet [Avapro]"
                }, 
                "quantity": {
                    "code": "{tablets}", 
                    "system": "http://unitsofmeasure.org", 
                    "unit": "tablets", 
                    "value": 30.0
                }, 
                "resourceType": "MedicationDispense", 
                "status": "completed", 
                "subject": {
                    "reference": "Patient/ehealth-1869612"
                }, 
                "text": {
                    "div": "<div xmlns=\"http://www.w3.org/1999/xhtml\">Dispensed 30 tablets = 30 day supply of irbesartan 150 MG Oral Tablet [Avapro]</div>", 
                    "status": "generated"
                }, 
                "whenHandedOver": "2003-12-27"
            }
        }, 
        {
            "request": {
                "method": "PUT", 
                "url": "MedicationDispense/ehealth-MedicationDispense-1196"
            }, 
            "resource": {
                "authorizingPrescription": [
                    {
                        "reference": "MedicationRequest/ehealth-MedicationRequest-210"
                    }
                ], 
                "daysSupply": {
                    "code": "d", 
                    "system": "http://unitsofmeasure.org", 
                    "unit": "days", 
                    "value": 30
                }, 
                "id": "ehealth-MedicationDispense-1196", 
                "medicationCodeableConcept": {
                    "coding": [
                        {
                            "code": "153666", 
                            "display": "irbesartan 150 MG Oral Tablet [Avapro]", 
                            "system": "http://www.nlm.nih.gov/research/umls/rxnorm"
                        }
                    ], 
                    "text": "irbesartan 150 MG Oral Tablet [Avapro]"
                }, 
                "quantity": {
                    "code": "{tablets}", 
                    "system": "http://unitsofmeasure.org", 
                    "unit": "tablets", 
                    "value": 30.0
                }, 
                "resourceType": "MedicationDispense", 
                "status": "completed", 
                "subject": {
                    "reference": "Patient/ehealth-1869612"
                }, 
                "text": {
                    "div": "<div xmlns=\"http://www.w3.org/1999/xhtml\">Dispensed 30 tablets = 30 day supply of irbesartan 150 MG Oral Tablet [Avapro]</div>", 
                    "status": "generated"
                }, 
                "whenHandedOver": "2005-01-09"
            }
        }, 
        {
            "request": {
                "method": "PUT", 
                "url": "MedicationDispense/ehealth-MedicationDispense-1188"
            }, 
            "resource": {
                "authorizingPrescription": [
                    {
                        "reference": "MedicationRequest/ehealth-MedicationRequest-210"
                    }
                ], 
                "daysSupply": {
                    "code": "d", 
                    "system": "http://unitsofmeasure.org", 
                    "unit": "days", 
                    "value": 30
                }, 
                "id": "ehealth-MedicationDispense-1188", 
                "medicationCodeableConcept": {
                    "coding": [
                        {
                            "code": "153666", 
                            "display": "irbesartan 150 MG Oral Tablet [Avapro]", 
                            "system": "http://www.nlm.nih.gov/research/umls/rxnorm"
                        }
                    ], 
                    "text": "irbesartan 150 MG Oral Tablet [Avapro]"
                }, 
                "quantity": {
                    "code": "{tablets}", 
                    "system": "http://unitsofmeasure.org", 
                    "unit": "tablets", 
                    "value": 30.0
                }, 
                "resourceType": "MedicationDispense", 
                "status": "completed", 
                "subject": {
                    "reference": "Patient/ehealth-1869612"
                }, 
                "text": {
                    "div": "<div xmlns=\"http://www.w3.org/1999/xhtml\">Dispensed 30 tablets = 30 day supply of irbesartan 150 MG Oral Tablet [Avapro]</div>", 
                    "status": "generated"
                }, 
                "whenHandedOver": "2004-04-30"
            }
        }, 
        {
            "request": {
                "method": "PUT", 
                "url": "MedicationDispense/ehealth-MedicationDispense-1187"
            }, 
            "resource": {
                "authorizingPrescription": [
                    {
                        "reference": "MedicationRequest/ehealth-MedicationRequest-210"
                    }
                ], 
                "daysSupply": {
                    "code": "d", 
                    "system": "http://unitsofmeasure.org", 
                    "unit": "days", 
                    "value": 30
                }, 
                "id": "ehealth-MedicationDispense-1187", 
                "medicationCodeableConcept": {
                    "coding": [
                        {
                            "code": "153666", 
                            "display": "irbesartan 150 MG Oral Tablet [Avapro]", 
                            "system": "http://www.nlm.nih.gov/research/umls/rxnorm"
                        }
                    ], 
                    "text": "irbesartan 150 MG Oral Tablet [Avapro]"
                }, 
                "quantity": {
                    "code": "{tablets}", 
                    "system": "http://unitsofmeasure.org", 
                    "unit": "tablets", 
                    "value": 30.0
                }, 
                "resourceType": "MedicationDispense", 
                "status": "completed", 
                "subject": {
                    "reference": "Patient/ehealth-1869612"
                }, 
                "text": {
                    "div": "<div xmlns=\"http://www.w3.org/1999/xhtml\">Dispensed 30 tablets = 30 day supply of irbesartan 150 MG Oral Tablet [Avapro]</div>", 
                    "status": "generated"
                }, 
                "whenHandedOver": "2004-04-07"
            }
        }, 
        {
            "request": {
                "method": "PUT", 
                "url": "MedicationDispense/ehealth-MedicationDispense-1194"
            }, 
            "resource": {
                "authorizingPrescription": [
                    {
                        "reference": "MedicationRequest/ehealth-MedicationRequest-210"
                    }
                ], 
                "daysSupply": {
                    "code": "d", 
                    "system": "http://unitsofmeasure.org", 
                    "unit": "days", 
                    "value": 30
                }, 
                "id": "ehealth-MedicationDispense-1194", 
                "medicationCodeableConcept": {
                    "coding": [
                        {
                            "code": "153666", 
                            "display": "irbesartan 150 MG Oral Tablet [Avapro]", 
                            "system": "http://www.nlm.nih.gov/research/umls/rxnorm"
                        }
                    ], 
                    "text": "irbesartan 150 MG Oral Tablet [Avapro]"
                }, 
                "quantity": {
                    "code": "{tablets}", 
                    "system": "http://unitsofmeasure.org", 
                    "unit": "tablets", 
                    "value": 30.0
                }, 
                "resourceType": "MedicationDispense", 
                "status": "completed", 
                "subject": {
                    "reference": "Patient/ehealth-1869612"
                }, 
                "text": {
                    "div": "<div xmlns=\"http://www.w3.org/1999/xhtml\">Dispensed 30 tablets = 30 day supply of irbesartan 150 MG Oral Tablet [Avapro]</div>", 
                    "status": "generated"
                }, 
                "whenHandedOver": "2004-11-12"
            }
        }, 
        {
            "request": {
                "method": "PUT", 
                "url": "MedicationDispense/ehealth-MedicationDispense-1197"
            }, 
            "resource": {
                "authorizingPrescription": [
                    {
                        "reference": "MedicationRequest/ehealth-MedicationRequest-210"
                    }
                ], 
                "daysSupply": {
                    "code": "d", 
                    "system": "http://unitsofmeasure.org", 
                    "unit": "days", 
                    "value": 30
                }, 
                "id": "ehealth-MedicationDispense-1197", 
                "medicationCodeableConcept": {
                    "coding": [
                        {
                            "code": "153666", 
                            "display": "irbesartan 150 MG Oral Tablet [Avapro]", 
                            "system": "http://www.nlm.nih.gov/research/umls/rxnorm"
                        }
                    ], 
                    "text": "irbesartan 150 MG Oral Tablet [Avapro]"
                }, 
                "quantity": {
                    "code": "{tablets}", 
                    "system": "http://unitsofmeasure.org", 
                    "unit": "tablets", 
                    "value": 30.0
                }, 
                "resourceType": "MedicationDispense", 
                "status": "completed", 
                "subject": {
                    "reference": "Patient/ehealth-1869612"
                }, 
                "text": {
                    "div": "<div xmlns=\"http://www.w3.org/1999/xhtml\">Dispensed 30 tablets = 30 day supply of irbesartan 150 MG Oral Tablet [Avapro]</div>", 
                    "status": "generated"
                }, 
                "whenHandedOver": "2005-02-05"
            }
        }, 
        {
            "request": {
                "method": "PUT", 
                "url": "MedicationDispense/ehealth-MedicationDispense-1202"
            }, 
            "resource": {
                "authorizingPrescription": [
                    {
                        "reference": "MedicationRequest/ehealth-MedicationRequest-210"
                    }
                ], 
                "daysSupply": {
                    "code": "d", 
                    "system": "http://unitsofmeasure.org", 
                    "unit": "days", 
                    "value": 30
                }, 
                "id": "ehealth-MedicationDispense-1202", 
                "medicationCodeableConcept": {
                    "coding": [
                        {
                            "code": "153666", 
                            "display": "irbesartan 150 MG Oral Tablet [Avapro]", 
                            "system": "http://www.nlm.nih.gov/research/umls/rxnorm"
                        }
                    ], 
                    "text": "irbesartan 150 MG Oral Tablet [Avapro]"
                }, 
                "quantity": {
                    "code": "{tablets}", 
                    "system": "http://unitsofmeasure.org", 
                    "unit": "tablets", 
                    "value": 30.0
                }, 
                "resourceType": "MedicationDispense", 
                "status": "completed", 
                "subject": {
                    "reference": "Patient/ehealth-1869612"
                }, 
                "text": {
                    "div": "<div xmlns=\"http://www.w3.org/1999/xhtml\">Dispensed 30 tablets = 30 day supply of irbesartan 150 MG Oral Tablet [Avapro]</div>", 
                    "status": "generated"
                }, 
                "whenHandedOver": "2005-08-01"
            }
        }, 
        {
            "request": {
                "method": "PUT", 
                "url": "MedicationDispense/ehealth-MedicationDispense-1185"
            }, 
            "resource": {
                "authorizingPrescription": [
                    {
                        "reference": "MedicationRequest/ehealth-MedicationRequest-210"
                    }
                ], 
                "daysSupply": {
                    "code": "d", 
                    "system": "http://unitsofmeasure.org", 
                    "unit": "days", 
                    "value": 30
                }, 
                "id": "ehealth-MedicationDispense-1185", 
                "medicationCodeableConcept": {
                    "coding": [
                        {
                            "code": "153666", 
                            "display": "irbesartan 150 MG Oral Tablet [Avapro]", 
                            "system": "http://www.nlm.nih.gov/research/umls/rxnorm"
                        }
                    ], 
                    "text": "irbesartan 150 MG Oral Tablet [Avapro]"
                }, 
                "quantity": {
                    "code": "{tablets}", 
                    "system": "http://unitsofmeasure.org", 
                    "unit": "tablets", 
                    "value": 30.0
                }, 
                "resourceType": "MedicationDispense", 
                "status": "completed", 
                "subject": {
                    "reference": "Patient/ehealth-1869612"
                }, 
                "text": {
                    "div": "<div xmlns=\"http://www.w3.org/1999/xhtml\">Dispensed 30 tablets = 30 day supply of irbesartan 150 MG Oral Tablet [Avapro]</div>", 
                    "status": "generated"
                }, 
                "whenHandedOver": "2004-01-22"
            }
        }, 
        {
            "request": {
                "method": "PUT", 
                "url": "MedicationDispense/ehealth-MedicationDispense-1201"
            }, 
            "resource": {
                "authorizingPrescription": [
                    {
                        "reference": "MedicationRequest/ehealth-MedicationRequest-210"
                    }
                ], 
                "daysSupply": {
                    "code": "d", 
                    "system": "http://unitsofmeasure.org", 
                    "unit": "days", 
                    "value": 30
                }, 
                "id": "ehealth-MedicationDispense-1201", 
                "medicationCodeableConcept": {
                    "coding": [
                        {
                            "code": "153666", 
                            "display": "irbesartan 150 MG Oral Tablet [Avapro]", 
                            "system": "http://www.nlm.nih.gov/research/umls/rxnorm"
                        }
                    ], 
                    "text": "irbesartan 150 MG Oral Tablet [Avapro]"
                }, 
                "quantity": {
                    "code": "{tablets}", 
                    "system": "http://unitsofmeasure.org", 
                    "unit": "tablets", 
                    "value": 30.0
                }, 
                "resourceType": "MedicationDispense", 
                "status": "completed", 
                "subject": {
                    "reference": "Patient/ehealth-1869612"
                }, 
                "text": {
                    "div": "<div xmlns=\"http://www.w3.org/1999/xhtml\">Dispensed 30 tablets = 30 day supply of irbesartan 150 MG Oral Tablet [Avapro]</div>", 
                    "status": "generated"
                }, 
                "whenHandedOver": "2005-06-30"
            }
        }, 
        {
            "request": {
                "method": "PUT", 
                "url": "MedicationDispense/ehealth-MedicationDispense-1200"
            }, 
            "resource": {
                "authorizingPrescription": [
                    {
                        "reference": "MedicationRequest/ehealth-MedicationRequest-210"
                    }
                ], 
                "daysSupply": {
                    "code": "d", 
                    "system": "http://unitsofmeasure.org", 
                    "unit": "days", 
                    "value": 30
                }, 
                "id": "ehealth-MedicationDispense-1200", 
                "medicationCodeableConcept": {
                    "coding": [
                        {
                            "code": "153666", 
                            "display": "irbesartan 150 MG Oral Tablet [Avapro]", 
                            "system": "http://www.nlm.nih.gov/research/umls/rxnorm"
                        }
                    ], 
                    "text": "irbesartan 150 MG Oral Tablet [Avapro]"
                }, 
                "quantity": {
                    "code": "{tablets}", 
                    "system": "http://unitsofmeasure.org", 
                    "unit": "tablets", 
                    "value": 30.0
                }, 
                "resourceType": "MedicationDispense", 
                "status": "completed", 
                "subject": {
                    "reference": "Patient/ehealth-1869612"
                }, 
                "text": {
                    "div": "<div xmlns=\"http://www.w3.org/1999/xhtml\">Dispensed 30 tablets = 30 day supply of irbesartan 150 MG Oral Tablet [Avapro]</div>", 
                    "status": "generated"
                }, 
                "whenHandedOver": "2005-06-02"
            }
        }, 
        {
            "request": {
                "method": "PUT", 
                "url": "MedicationDispense/ehealth-MedicationDispense-1191"
            }, 
            "resource": {
                "authorizingPrescription": [
                    {
                        "reference": "MedicationRequest/ehealth-MedicationRequest-210"
                    }
                ], 
                "daysSupply": {
                    "code": "d", 
                    "system": "http://unitsofmeasure.org", 
                    "unit": "days", 
                    "value": 30
                }, 
                "id": "ehealth-MedicationDispense-1191", 
                "medicationCodeableConcept": {
                    "coding": [
                        {
                            "code": "153666", 
                            "display": "irbesartan 150 MG Oral Tablet [Avapro]", 
                            "system": "http://www.nlm.nih.gov/research/umls/rxnorm"
                        }
                    ], 
                    "text": "irbesartan 150 MG Oral Tablet [Avapro]"
                }, 
                "quantity": {
                    "code": "{tablets}", 
                    "system": "http://unitsofmeasure.org", 
                    "unit": "tablets", 
                    "value": 30.0
                }, 
                "resourceType": "MedicationDispense", 
                "status": "completed", 
                "subject": {
                    "reference": "Patient/ehealth-1869612"
                }, 
                "text": {
                    "div": "<div xmlns=\"http://www.w3.org/1999/xhtml\">Dispensed 30 tablets = 30 day supply of irbesartan 150 MG Oral Tablet [Avapro]</div>", 
                    "status": "generated"
                }, 
                "whenHandedOver": "2004-08-06"
            }
        }, 
        {
            "request": {
                "method": "PUT", 
                "url": "MedicationDispense/ehealth-MedicationDispense-1182"
            }, 
            "resource": {
                "authorizingPrescription": [
                    {
                        "reference": "MedicationRequest/ehealth-MedicationRequest-210"
                    }
                ], 
                "daysSupply": {
                    "code": "d", 
                    "system": "http://unitsofmeasure.org", 
                    "unit": "days", 
                    "value": 30
                }, 
                "id": "ehealth-MedicationDispense-1182", 
                "medicationCodeableConcept": {
                    "coding": [
                        {
                            "code": "153666", 
                            "display": "irbesartan 150 MG Oral Tablet [Avapro]", 
                            "system": "http://www.nlm.nih.gov/research/umls/rxnorm"
                        }
                    ], 
                    "text": "irbesartan 150 MG Oral Tablet [Avapro]"
                }, 
                "quantity": {
                    "code": "{tablets}", 
                    "system": "http://unitsofmeasure.org", 
                    "unit": "tablets", 
                    "value": 30.0
                }, 
                "resourceType": "MedicationDispense", 
                "status": "completed", 
                "subject": {
                    "reference": "Patient/ehealth-1869612"
                }, 
                "text": {
                    "div": "<div xmlns=\"http://www.w3.org/1999/xhtml\">Dispensed 30 tablets = 30 day supply of irbesartan 150 MG Oral Tablet [Avapro]</div>", 
                    "status": "generated"
                }, 
                "whenHandedOver": "2003-10-27"
            }
        }, 
        {
            "request": {
                "method": "PUT", 
                "url": "MedicationDispense/ehealth-MedicationDispense-1199"
            }, 
            "resource": {
                "authorizingPrescription": [
                    {
                        "reference": "MedicationRequest/ehealth-MedicationRequest-210"
                    }
                ], 
                "daysSupply": {
                    "code": "d", 
                    "system": "http://unitsofmeasure.org", 
                    "unit": "days", 
                    "value": 30
                }, 
                "id": "ehealth-MedicationDispense-1199", 
                "medicationCodeableConcept": {
                    "coding": [
                        {
                            "code": "153666", 
                            "display": "irbesartan 150 MG Oral Tablet [Avapro]", 
                            "system": "http://www.nlm.nih.gov/research/umls/rxnorm"
                        }
                    ], 
                    "text": "irbesartan 150 MG Oral Tablet [Avapro]"
                }, 
                "quantity": {
                    "code": "{tablets}", 
                    "system": "http://unitsofmeasure.org", 
                    "unit": "tablets", 
                    "value": 30.0
                }, 
                "resourceType": "MedicationDispense", 
                "status": "completed", 
                "subject": {
                    "reference": "Patient/ehealth-1869612"
                }, 
                "text": {
                    "div": "<div xmlns=\"http://www.w3.org/1999/xhtml\">Dispensed 30 tablets = 30 day supply of irbesartan 150 MG Oral Tablet [Avapro]</div>", 
                    "status": "generated"
                }, 
                "whenHandedOver": "2005-04-17"
            }
        }, 
        {
            "request": {
                "method": "PUT", 
                "url": "MedicationDispense/ehealth-MedicationDispense-1192"
            }, 
            "resource": {
                "authorizingPrescription": [
                    {
                        "reference": "MedicationRequest/ehealth-MedicationRequest-210"
                    }
                ], 
                "daysSupply": {
                    "code": "d", 
                    "system": "http://unitsofmeasure.org", 
                    "unit": "days", 
                    "value": 30
                }, 
                "id": "ehealth-MedicationDispense-1192", 
                "medicationCodeableConcept": {
                    "coding": [
                        {
                            "code": "153666", 
                            "display": "irbesartan 150 MG Oral Tablet [Avapro]", 
                            "system": "http://www.nlm.nih.gov/research/umls/rxnorm"
                        }
                    ], 
                    "text": "irbesartan 150 MG Oral Tablet [Avapro]"
                }, 
                "quantity": {
                    "code": "{tablets}", 
                    "system": "http://unitsofmeasure.org", 
                    "unit": "tablets", 
                    "value": 30.0
                }, 
                "resourceType": "MedicationDispense", 
                "status": "completed", 
                "subject": {
                    "reference": "Patient/ehealth-1869612"
                }, 
                "text": {
                    "div": "<div xmlns=\"http://www.w3.org/1999/xhtml\">Dispensed 30 tablets = 30 day supply of irbesartan 150 MG Oral Tablet [Avapro]</div>", 
                    "status": "generated"
                }, 
                "whenHandedOver": "2004-09-13"
            }
        }, 
        {
            "request": {
                "method": "PUT", 
                "url": "MedicationDispense/ehealth-MedicationDispense-1189"
            }, 
            "resource": {
                "authorizingPrescription": [
                    {
                        "reference": "MedicationRequest/ehealth-MedicationRequest-210"
                    }
                ], 
                "daysSupply": {
                    "code": "d", 
                    "system": "http://unitsofmeasure.org", 
                    "unit": "days", 
                    "value": 30
                }, 
                "id": "ehealth-MedicationDispense-1189", 
                "medicationCodeableConcept": {
                    "coding": [
                        {
                            "code": "153666", 
                            "display": "irbesartan 150 MG Oral Tablet [Avapro]", 
                            "system": "http://www.nlm.nih.gov/research/umls/rxnorm"
                        }
                    ], 
                    "text": "irbesartan 150 MG Oral Tablet [Avapro]"
                }, 
                "quantity": {
                    "code": "{tablets}", 
                    "system": "http://unitsofmeasure.org", 
                    "unit": "tablets", 
                    "value": 30.0
                }, 
                "resourceType": "MedicationDispense", 
                "status": "completed", 
                "subject": {
                    "reference": "Patient/ehealth-1869612"
                }, 
                "text": {
                    "div": "<div xmlns=\"http://www.w3.org/1999/xhtml\">Dispensed 30 tablets = 30 day supply of irbesartan 150 MG Oral Tablet [Avapro]</div>", 
                    "status": "generated"
                }, 
                "whenHandedOver": "2004-06-04"
            }
        }, 
        {
            "request": {
                "method": "PUT", 
                "url": "MedicationDispense/ehealth-MedicationDispense-1186"
            }, 
            "resource": {
                "authorizingPrescription": [
                    {
                        "reference": "MedicationRequest/ehealth-MedicationRequest-210"
                    }
                ], 
                "daysSupply": {
                    "code": "d", 
                    "system": "http://unitsofmeasure.org", 
                    "unit": "days", 
                    "value": 30
                }, 
                "id": "ehealth-MedicationDispense-1186", 
                "medicationCodeableConcept": {
                    "coding": [
                        {
                            "code": "153666", 
                            "display": "irbesartan 150 MG Oral Tablet [Avapro]", 
                            "system": "http://www.nlm.nih.gov/research/umls/rxnorm"
                        }
                    ], 
                    "text": "irbesartan 150 MG Oral Tablet [Avapro]"
                }, 
                "quantity": {
                    "code": "{tablets}", 
                    "system": "http://unitsofmeasure.org", 
                    "unit": "tablets", 
                    "value": 30.0
                }, 
                "resourceType": "MedicationDispense", 
                "status": "completed", 
                "subject": {
                    "reference": "Patient/ehealth-1869612"
                }, 
                "text": {
                    "div": "<div xmlns=\"http://www.w3.org/1999/xhtml\">Dispensed 30 tablets = 30 day supply of irbesartan 150 MG Oral Tablet [Avapro]</div>", 
                    "status": "generated"
                }, 
                "whenHandedOver": "2004-03-02"
            }
        }, 
        {
            "request": {
                "method": "PUT", 
                "url": "MedicationRequest/ehealth-MedicationRequest-211"
            }, 
            "resource": {
                "dispenseRequest": {
                    "expectedSupplyDuration": {
                        "code": "d", 
                        "system": "http://unitsofmeasure.org", 
                        "unit": "days", 
                        "value": 30
                    }, 
                    "numberOfRepeatsAllowed": 1, 
                    "quantity": {
                        "code": "{tablet}", 
                        "system": "http://unitsofmeasure.org", 
                        "unit": "{tablet}", 
                        "value": 30.0
                    }
                }, 
                "dosageInstruction": [
                    {
                        "doseQuantity": {
                            "code": "{tablet}", 
                            "system": "http://unitsofmeasure.org", 
                            "unit": "{tablet}", 
                            "value": 1.0
                        }, 
                        "text": "1 daily", 
                        "timing": {
                            "repeat": {
                                "boundsPeriod": {
                                    "start": "2003-12-10"
                                }, 
                                "frequency": 1, 
                                "period": 1, 
                                "periodUnit": "d"
                            }
                        }
                    }
                ], 
                "id": "ehealth-MedicationRequest-211", 
                "intent": "order", 
                "medicationCodeableConcept": {
                    "coding": [
                        {
                            "code": "153843", 
                            "display": "glimepiride 1 MG Oral Tablet [Amaryl]", 
                            "system": "http://www.nlm.nih.gov/research/umls/rxnorm"
                        }
                    ], 
                    "text": "glimepiride 1 MG Oral Tablet [Amaryl]"
                }, 
                "resourceType": "MedicationRequest", 
                "status": "active", 
                "subject": {
                    "reference": "Patient/ehealth-1869612"
                }, 
                "text": {
                    "div": "<div xmlns=\"http://www.w3.org/1999/xhtml\">glimepiride 1 MG Oral Tablet [Amaryl] (rxnorm: 153843)</div>", 
                    "status": "generated"
                }
            }
        }, 
        {
            "request": {
                "method": "PUT", 
                "url": "MedicationDispense/ehealth-MedicationDispense-1226"
            }, 
            "resource": {
                "authorizingPrescription": [
                    {
                        "reference": "MedicationRequest/ehealth-MedicationRequest-211"
                    }
                ], 
                "daysSupply": {
                    "code": "d", 
                    "system": "http://unitsofmeasure.org", 
                    "unit": "days", 
                    "value": 30
                }, 
                "id": "ehealth-MedicationDispense-1226", 
                "medicationCodeableConcept": {
                    "coding": [
                        {
                            "code": "153843", 
                            "display": "glimepiride 1 MG Oral Tablet [Amaryl]", 
                            "system": "http://www.nlm.nih.gov/research/umls/rxnorm"
                        }
                    ], 
                    "text": "glimepiride 1 MG Oral Tablet [Amaryl]"
                }, 
                "quantity": {
                    "code": "{tablets}", 
                    "system": "http://unitsofmeasure.org", 
                    "unit": "tablets", 
                    "value": 30.0
                }, 
                "resourceType": "MedicationDispense", 
                "status": "completed", 
                "subject": {
                    "reference": "Patient/ehealth-1869612"
                }, 
                "text": {
                    "div": "<div xmlns=\"http://www.w3.org/1999/xhtml\">Dispensed 30 tablets = 30 day supply of glimepiride 1 MG Oral Tablet [Amaryl]</div>", 
                    "status": "generated"
                }, 
                "whenHandedOver": "2004-03-31"
            }
        }, 
        {
            "request": {
                "method": "PUT", 
                "url": "MedicationDispense/ehealth-MedicationDispense-1225"
            }, 
            "resource": {
                "authorizingPrescription": [
                    {
                        "reference": "MedicationRequest/ehealth-MedicationRequest-211"
                    }
                ], 
                "daysSupply": {
                    "code": "d", 
                    "system": "http://unitsofmeasure.org", 
                    "unit": "days", 
                    "value": 30
                }, 
                "id": "ehealth-MedicationDispense-1225", 
                "medicationCodeableConcept": {
                    "coding": [
                        {
                            "code": "153843", 
                            "display": "glimepiride 1 MG Oral Tablet [Amaryl]", 
                            "system": "http://www.nlm.nih.gov/research/umls/rxnorm"
                        }
                    ], 
                    "text": "glimepiride 1 MG Oral Tablet [Amaryl]"
                }, 
                "quantity": {
                    "code": "{tablets}", 
                    "system": "http://unitsofmeasure.org", 
                    "unit": "tablets", 
                    "value": 30.0
                }, 
                "resourceType": "MedicationDispense", 
                "status": "completed", 
                "subject": {
                    "reference": "Patient/ehealth-1869612"
                }, 
                "text": {
                    "div": "<div xmlns=\"http://www.w3.org/1999/xhtml\">Dispensed 30 tablets = 30 day supply of glimepiride 1 MG Oral Tablet [Amaryl]</div>", 
                    "status": "generated"
                }, 
                "whenHandedOver": "2004-03-02"
            }
        }, 
        {
            "request": {
                "method": "PUT", 
                "url": "MedicationDispense/ehealth-MedicationDispense-1224"
            }, 
            "resource": {
                "authorizingPrescription": [
                    {
                        "reference": "MedicationRequest/ehealth-MedicationRequest-211"
                    }
                ], 
                "daysSupply": {
                    "code": "d", 
                    "system": "http://unitsofmeasure.org", 
                    "unit": "days", 
                    "value": 30
                }, 
                "id": "ehealth-MedicationDispense-1224", 
                "medicationCodeableConcept": {
                    "coding": [
                        {
                            "code": "153843", 
                            "display": "glimepiride 1 MG Oral Tablet [Amaryl]", 
                            "system": "http://www.nlm.nih.gov/research/umls/rxnorm"
                        }
                    ], 
                    "text": "glimepiride 1 MG Oral Tablet [Amaryl]"
                }, 
                "quantity": {
                    "code": "{tablets}", 
                    "system": "http://unitsofmeasure.org", 
                    "unit": "tablets", 
                    "value": 30.0
                }, 
                "resourceType": "MedicationDispense", 
                "status": "completed", 
                "subject": {
                    "reference": "Patient/ehealth-1869612"
                }, 
                "text": {
                    "div": "<div xmlns=\"http://www.w3.org/1999/xhtml\">Dispensed 30 tablets = 30 day supply of glimepiride 1 MG Oral Tablet [Amaryl]</div>", 
                    "status": "generated"
                }, 
                "whenHandedOver": "2004-01-19"
            }
        }, 
        {
            "request": {
                "method": "PUT", 
                "url": "MedicationDispense/ehealth-MedicationDispense-1223"
            }, 
            "resource": {
                "authorizingPrescription": [
                    {
                        "reference": "MedicationRequest/ehealth-MedicationRequest-211"
                    }
                ], 
                "daysSupply": {
                    "code": "d", 
                    "system": "http://unitsofmeasure.org", 
                    "unit": "days", 
                    "value": 30
                }, 
                "id": "ehealth-MedicationDispense-1223", 
                "medicationCodeableConcept": {
                    "coding": [
                        {
                            "code": "153843", 
                            "display": "glimepiride 1 MG Oral Tablet [Amaryl]", 
                            "system": "http://www.nlm.nih.gov/research/umls/rxnorm"
                        }
                    ], 
                    "text": "glimepiride 1 MG Oral Tablet [Amaryl]"
                }, 
                "quantity": {
                    "code": "{tablets}", 
                    "system": "http://unitsofmeasure.org", 
                    "unit": "tablets", 
                    "value": 30.0
                }, 
                "resourceType": "MedicationDispense", 
                "status": "completed", 
                "subject": {
                    "reference": "Patient/ehealth-1869612"
                }, 
                "text": {
                    "div": "<div xmlns=\"http://www.w3.org/1999/xhtml\">Dispensed 30 tablets = 30 day supply of glimepiride 1 MG Oral Tablet [Amaryl]</div>", 
                    "status": "generated"
                }, 
                "whenHandedOver": "2003-12-10"
            }
        }, 
        {
            "request": {
                "method": "PUT", 
                "url": "MedicationRequest/ehealth-MedicationRequest-212"
            }, 
            "resource": {
                "dispenseRequest": {
                    "expectedSupplyDuration": {
                        "code": "d", 
                        "system": "http://unitsofmeasure.org", 
                        "unit": "days", 
                        "value": 30
                    }, 
                    "numberOfRepeatsAllowed": 1, 
                    "quantity": {
                        "code": "{tablet}", 
                        "system": "http://unitsofmeasure.org", 
                        "unit": "{tablet}", 
                        "value": 30.0
                    }
                }, 
                "dosageInstruction": [
                    {
                        "doseQuantity": {
                            "code": "{tablet}", 
                            "system": "http://unitsofmeasure.org", 
                            "unit": "{tablet}", 
                            "value": 1.0
                        }, 
                        "text": "1 daily", 
                        "timing": {
                            "repeat": {
                                "boundsPeriod": {
                                    "start": "2004-04-16"
                                }, 
                                "frequency": 1, 
                                "period": 1, 
                                "periodUnit": "d"
                            }
                        }
                    }
                ], 
                "id": "ehealth-MedicationRequest-212", 
                "intent": "order", 
                "medicationCodeableConcept": {
                    "coding": [
                        {
                            "code": "314076", 
                            "display": "Lisinopril 10 MG Oral Tablet", 
                            "system": "http://www.nlm.nih.gov/research/umls/rxnorm"
                        }
                    ], 
                    "text": "Lisinopril 10 MG Oral Tablet"
                }, 
                "resourceType": "MedicationRequest", 
                "status": "active", 
                "subject": {
                    "reference": "Patient/ehealth-1869612"
                }, 
                "text": {
                    "div": "<div xmlns=\"http://www.w3.org/1999/xhtml\">Lisinopril 10 MG Oral Tablet (rxnorm: 314076)</div>", 
                    "status": "generated"
                }
            }
        }, 
        {
            "request": {
                "method": "PUT", 
                "url": "MedicationDispense/ehealth-MedicationDispense-1212"
            }, 
            "resource": {
                "authorizingPrescription": [
                    {
                        "reference": "MedicationRequest/ehealth-MedicationRequest-212"
                    }
                ], 
                "daysSupply": {
                    "code": "d", 
                    "system": "http://unitsofmeasure.org", 
                    "unit": "days", 
                    "value": 30
                }, 
                "id": "ehealth-MedicationDispense-1212", 
                "medicationCodeableConcept": {
                    "coding": [
                        {
                            "code": "314076", 
                            "display": "Lisinopril 10 MG Oral Tablet", 
                            "system": "http://www.nlm.nih.gov/research/umls/rxnorm"
                        }
                    ], 
                    "text": "Lisinopril 10 MG Oral Tablet"
                }, 
                "quantity": {
                    "code": "{tablets}", 
                    "system": "http://unitsofmeasure.org", 
                    "unit": "tablets", 
                    "value": 30.0
                }, 
                "resourceType": "MedicationDispense", 
                "status": "completed", 
                "subject": {
                    "reference": "Patient/ehealth-1869612"
                }, 
                "text": {
                    "div": "<div xmlns=\"http://www.w3.org/1999/xhtml\">Dispensed 30 tablets = 30 day supply of Lisinopril 10 MG Oral Tablet</div>", 
                    "status": "generated"
                }, 
                "whenHandedOver": "2004-04-16"
            }
        }, 
        {
            "request": {
                "method": "PUT", 
                "url": "MedicationRequest/ehealth-MedicationRequest-213"
            }, 
            "resource": {
                "dispenseRequest": {
                    "expectedSupplyDuration": {
                        "code": "d", 
                        "system": "http://unitsofmeasure.org", 
                        "unit": "days", 
                        "value": 30
                    }, 
                    "numberOfRepeatsAllowed": 1, 
                    "quantity": {
                        "code": "{tablet}", 
                        "system": "http://unitsofmeasure.org", 
                        "unit": "{tablet}", 
                        "value": 30.0
                    }
                }, 
                "dosageInstruction": [
                    {
                        "doseQuantity": {
                            "code": "{tablet}", 
                            "system": "http://unitsofmeasure.org", 
                            "unit": "{tablet}", 
                            "value": 1.0
                        }, 
                        "text": "1 daily", 
                        "timing": {
                            "repeat": {
                                "boundsPeriod": {
                                    "start": "2004-04-30"
                                }, 
                                "frequency": 1, 
                                "period": 1, 
                                "periodUnit": "d"
                            }
                        }
                    }
                ], 
                "id": "ehealth-MedicationRequest-213", 
                "intent": "order", 
                "medicationCodeableConcept": {
                    "coding": [
                        {
                            "code": "153591", 
                            "display": "glimepiride 2 MG Oral Tablet [Amaryl]", 
                            "system": "http://www.nlm.nih.gov/research/umls/rxnorm"
                        }
                    ], 
                    "text": "glimepiride 2 MG Oral Tablet [Amaryl]"
                }, 
                "resourceType": "MedicationRequest", 
                "status": "active", 
                "subject": {
                    "reference": "Patient/ehealth-1869612"
                }, 
                "text": {
                    "div": "<div xmlns=\"http://www.w3.org/1999/xhtml\">glimepiride 2 MG Oral Tablet [Amaryl] (rxnorm: 153591)</div>", 
                    "status": "generated"
                }
            }
        }, 
        {
            "request": {
                "method": "PUT", 
                "url": "MedicationDispense/ehealth-MedicationDispense-1166"
            }, 
            "resource": {
                "authorizingPrescription": [
                    {
                        "reference": "MedicationRequest/ehealth-MedicationRequest-213"
                    }
                ], 
                "daysSupply": {
                    "code": "d", 
                    "system": "http://unitsofmeasure.org", 
                    "unit": "days", 
                    "value": 30
                }, 
                "id": "ehealth-MedicationDispense-1166", 
                "medicationCodeableConcept": {
                    "coding": [
                        {
                            "code": "153591", 
                            "display": "glimepiride 2 MG Oral Tablet [Amaryl]", 
                            "system": "http://www.nlm.nih.gov/research/umls/rxnorm"
                        }
                    ], 
                    "text": "glimepiride 2 MG Oral Tablet [Amaryl]"
                }, 
                "quantity": {
                    "code": "{tablets}", 
                    "system": "http://unitsofmeasure.org", 
                    "unit": "tablets", 
                    "value": 30.0
                }, 
                "resourceType": "MedicationDispense", 
                "status": "completed", 
                "subject": {
                    "reference": "Patient/ehealth-1869612"
                }, 
                "text": {
                    "div": "<div xmlns=\"http://www.w3.org/1999/xhtml\">Dispensed 30 tablets = 30 day supply of glimepiride 2 MG Oral Tablet [Amaryl]</div>", 
                    "status": "generated"
                }, 
                "whenHandedOver": "2004-04-30"
            }
        }, 
        {
            "request": {
                "method": "PUT", 
                "url": "MedicationDispense/ehealth-MedicationDispense-1172"
            }, 
            "resource": {
                "authorizingPrescription": [
                    {
                        "reference": "MedicationRequest/ehealth-MedicationRequest-213"
                    }
                ], 
                "daysSupply": {
                    "code": "d", 
                    "system": "http://unitsofmeasure.org", 
                    "unit": "days", 
                    "value": 30
                }, 
                "id": "ehealth-MedicationDispense-1172", 
                "medicationCodeableConcept": {
                    "coding": [
                        {
                            "code": "153591", 
                            "display": "glimepiride 2 MG Oral Tablet [Amaryl]", 
                            "system": "http://www.nlm.nih.gov/research/umls/rxnorm"
                        }
                    ], 
                    "text": "glimepiride 2 MG Oral Tablet [Amaryl]"
                }, 
                "quantity": {
                    "code": "{tablets}", 
                    "system": "http://unitsofmeasure.org", 
                    "unit": "tablets", 
                    "value": 30.0
                }, 
                "resourceType": "MedicationDispense", 
                "status": "completed", 
                "subject": {
                    "reference": "Patient/ehealth-1869612"
                }, 
                "text": {
                    "div": "<div xmlns=\"http://www.w3.org/1999/xhtml\">Dispensed 30 tablets = 30 day supply of glimepiride 2 MG Oral Tablet [Amaryl]</div>", 
                    "status": "generated"
                }, 
                "whenHandedOver": "2004-11-12"
            }
        }, 
        {
            "request": {
                "method": "PUT", 
                "url": "MedicationDispense/ehealth-MedicationDispense-1181"
            }, 
            "resource": {
                "authorizingPrescription": [
                    {
                        "reference": "MedicationRequest/ehealth-MedicationRequest-213"
                    }
                ], 
                "daysSupply": {
                    "code": "d", 
                    "system": "http://unitsofmeasure.org", 
                    "unit": "days", 
                    "value": 30
                }, 
                "id": "ehealth-MedicationDispense-1181", 
                "medicationCodeableConcept": {
                    "coding": [
                        {
                            "code": "153591", 
                            "display": "glimepiride 2 MG Oral Tablet [Amaryl]", 
                            "system": "http://www.nlm.nih.gov/research/umls/rxnorm"
                        }
                    ], 
                    "text": "glimepiride 2 MG Oral Tablet [Amaryl]"
                }, 
                "quantity": {
                    "code": "{tablets}", 
                    "system": "http://unitsofmeasure.org", 
                    "unit": "tablets", 
                    "value": 30.0
                }, 
                "resourceType": "MedicationDispense", 
                "status": "completed", 
                "subject": {
                    "reference": "Patient/ehealth-1869612"
                }, 
                "text": {
                    "div": "<div xmlns=\"http://www.w3.org/1999/xhtml\">Dispensed 30 tablets = 30 day supply of glimepiride 2 MG Oral Tablet [Amaryl]</div>", 
                    "status": "generated"
                }, 
                "whenHandedOver": "2005-09-26"
            }
        }, 
        {
            "request": {
                "method": "PUT", 
                "url": "MedicationDispense/ehealth-MedicationDispense-1179"
            }, 
            "resource": {
                "authorizingPrescription": [
                    {
                        "reference": "MedicationRequest/ehealth-MedicationRequest-213"
                    }
                ], 
                "daysSupply": {
                    "code": "d", 
                    "system": "http://unitsofmeasure.org", 
                    "unit": "days", 
                    "value": 30
                }, 
                "id": "ehealth-MedicationDispense-1179", 
                "medicationCodeableConcept": {
                    "coding": [
                        {
                            "code": "153591", 
                            "display": "glimepiride 2 MG Oral Tablet [Amaryl]", 
                            "system": "http://www.nlm.nih.gov/research/umls/rxnorm"
                        }
                    ], 
                    "text": "glimepiride 2 MG Oral Tablet [Amaryl]"
                }, 
                "quantity": {
                    "code": "{tablets}", 
                    "system": "http://unitsofmeasure.org", 
                    "unit": "tablets", 
                    "value": 30.0
                }, 
                "resourceType": "MedicationDispense", 
                "status": "completed", 
                "subject": {
                    "reference": "Patient/ehealth-1869612"
                }, 
                "text": {
                    "div": "<div xmlns=\"http://www.w3.org/1999/xhtml\">Dispensed 30 tablets = 30 day supply of glimepiride 2 MG Oral Tablet [Amaryl]</div>", 
                    "status": "generated"
                }, 
                "whenHandedOver": "2005-06-30"
            }
        }, 
        {
            "request": {
                "method": "PUT", 
                "url": "MedicationDispense/ehealth-MedicationDispense-1178"
            }, 
            "resource": {
                "authorizingPrescription": [
                    {
                        "reference": "MedicationRequest/ehealth-MedicationRequest-213"
                    }
                ], 
                "daysSupply": {
                    "code": "d", 
                    "system": "http://unitsofmeasure.org", 
                    "unit": "days", 
                    "value": 30
                }, 
                "id": "ehealth-MedicationDispense-1178", 
                "medicationCodeableConcept": {
                    "coding": [
                        {
                            "code": "153591", 
                            "display": "glimepiride 2 MG Oral Tablet [Amaryl]", 
                            "system": "http://www.nlm.nih.gov/research/umls/rxnorm"
                        }
                    ], 
                    "text": "glimepiride 2 MG Oral Tablet [Amaryl]"
                }, 
                "quantity": {
                    "code": "{tablets}", 
                    "system": "http://unitsofmeasure.org", 
                    "unit": "tablets", 
                    "value": 30.0
                }, 
                "resourceType": "MedicationDispense", 
                "status": "completed", 
                "subject": {
                    "reference": "Patient/ehealth-1869612"
                }, 
                "text": {
                    "div": "<div xmlns=\"http://www.w3.org/1999/xhtml\">Dispensed 30 tablets = 30 day supply of glimepiride 2 MG Oral Tablet [Amaryl]</div>", 
                    "status": "generated"
                }, 
                "whenHandedOver": "2005-06-02"
            }
        }, 
        {
            "request": {
                "method": "PUT", 
                "url": "MedicationDispense/ehealth-MedicationDispense-1169"
            }, 
            "resource": {
                "authorizingPrescription": [
                    {
                        "reference": "MedicationRequest/ehealth-MedicationRequest-213"
                    }
                ], 
                "daysSupply": {
                    "code": "d", 
                    "system": "http://unitsofmeasure.org", 
                    "unit": "days", 
                    "value": 30
                }, 
                "id": "ehealth-MedicationDispense-1169", 
                "medicationCodeableConcept": {
                    "coding": [
                        {
                            "code": "153591", 
                            "display": "glimepiride 2 MG Oral Tablet [Amaryl]", 
                            "system": "http://www.nlm.nih.gov/research/umls/rxnorm"
                        }
                    ], 
                    "text": "glimepiride 2 MG Oral Tablet [Amaryl]"
                }, 
                "quantity": {
                    "code": "{tablets}", 
                    "system": "http://unitsofmeasure.org", 
                    "unit": "tablets", 
                    "value": 30.0
                }, 
                "resourceType": "MedicationDispense", 
                "status": "completed", 
                "subject": {
                    "reference": "Patient/ehealth-1869612"
                }, 
                "text": {
                    "div": "<div xmlns=\"http://www.w3.org/1999/xhtml\">Dispensed 30 tablets = 30 day supply of glimepiride 2 MG Oral Tablet [Amaryl]</div>", 
                    "status": "generated"
                }, 
                "whenHandedOver": "2004-08-06"
            }
        }, 
        {
            "request": {
                "method": "PUT", 
                "url": "MedicationDispense/ehealth-MedicationDispense-1170"
            }, 
            "resource": {
                "authorizingPrescription": [
                    {
                        "reference": "MedicationRequest/ehealth-MedicationRequest-213"
                    }
                ], 
                "daysSupply": {
                    "code": "d", 
                    "system": "http://unitsofmeasure.org", 
                    "unit": "days", 
                    "value": 30
                }, 
                "id": "ehealth-MedicationDispense-1170", 
                "medicationCodeableConcept": {
                    "coding": [
                        {
                            "code": "153591", 
                            "display": "glimepiride 2 MG Oral Tablet [Amaryl]", 
                            "system": "http://www.nlm.nih.gov/research/umls/rxnorm"
                        }
                    ], 
                    "text": "glimepiride 2 MG Oral Tablet [Amaryl]"
                }, 
                "quantity": {
                    "code": "{tablets}", 
                    "system": "http://unitsofmeasure.org", 
                    "unit": "tablets", 
                    "value": 30.0
                }, 
                "resourceType": "MedicationDispense", 
                "status": "completed", 
                "subject": {
                    "reference": "Patient/ehealth-1869612"
                }, 
                "text": {
                    "div": "<div xmlns=\"http://www.w3.org/1999/xhtml\">Dispensed 30 tablets = 30 day supply of glimepiride 2 MG Oral Tablet [Amaryl]</div>", 
                    "status": "generated"
                }, 
                "whenHandedOver": "2004-09-13"
            }
        }, 
        {
            "request": {
                "method": "PUT", 
                "url": "MedicationDispense/ehealth-MedicationDispense-1168"
            }, 
            "resource": {
                "authorizingPrescription": [
                    {
                        "reference": "MedicationRequest/ehealth-MedicationRequest-213"
                    }
                ], 
                "daysSupply": {
                    "code": "d", 
                    "system": "http://unitsofmeasure.org", 
                    "unit": "days", 
                    "value": 30
                }, 
                "id": "ehealth-MedicationDispense-1168", 
                "medicationCodeableConcept": {
                    "coding": [
                        {
                            "code": "153591", 
                            "display": "glimepiride 2 MG Oral Tablet [Amaryl]", 
                            "system": "http://www.nlm.nih.gov/research/umls/rxnorm"
                        }
                    ], 
                    "text": "glimepiride 2 MG Oral Tablet [Amaryl]"
                }, 
                "quantity": {
                    "code": "{tablets}", 
                    "system": "http://unitsofmeasure.org", 
                    "unit": "tablets", 
                    "value": 30.0
                }, 
                "resourceType": "MedicationDispense", 
                "status": "completed", 
                "subject": {
                    "reference": "Patient/ehealth-1869612"
                }, 
                "text": {
                    "div": "<div xmlns=\"http://www.w3.org/1999/xhtml\">Dispensed 30 tablets = 30 day supply of glimepiride 2 MG Oral Tablet [Amaryl]</div>", 
                    "status": "generated"
                }, 
                "whenHandedOver": "2004-07-04"
            }
        }, 
        {
            "request": {
                "method": "PUT", 
                "url": "MedicationDispense/ehealth-MedicationDispense-1175"
            }, 
            "resource": {
                "authorizingPrescription": [
                    {
                        "reference": "MedicationRequest/ehealth-MedicationRequest-213"
                    }
                ], 
                "daysSupply": {
                    "code": "d", 
                    "system": "http://unitsofmeasure.org", 
                    "unit": "days", 
                    "value": 30
                }, 
                "id": "ehealth-MedicationDispense-1175", 
                "medicationCodeableConcept": {
                    "coding": [
                        {
                            "code": "153591", 
                            "display": "glimepiride 2 MG Oral Tablet [Amaryl]", 
                            "system": "http://www.nlm.nih.gov/research/umls/rxnorm"
                        }
                    ], 
                    "text": "glimepiride 2 MG Oral Tablet [Amaryl]"
                }, 
                "quantity": {
                    "code": "{tablets}", 
                    "system": "http://unitsofmeasure.org", 
                    "unit": "tablets", 
                    "value": 30.0
                }, 
                "resourceType": "MedicationDispense", 
                "status": "completed", 
                "subject": {
                    "reference": "Patient/ehealth-1869612"
                }, 
                "text": {
                    "div": "<div xmlns=\"http://www.w3.org/1999/xhtml\">Dispensed 30 tablets = 30 day supply of glimepiride 2 MG Oral Tablet [Amaryl]</div>", 
                    "status": "generated"
                }, 
                "whenHandedOver": "2005-02-05"
            }
        }, 
        {
            "request": {
                "method": "PUT", 
                "url": "MedicationDispense/ehealth-MedicationDispense-1173"
            }, 
            "resource": {
                "authorizingPrescription": [
                    {
                        "reference": "MedicationRequest/ehealth-MedicationRequest-213"
                    }
                ], 
                "daysSupply": {
                    "code": "d", 
                    "system": "http://unitsofmeasure.org", 
                    "unit": "days", 
                    "value": 30
                }, 
                "id": "ehealth-MedicationDispense-1173", 
                "medicationCodeableConcept": {
                    "coding": [
                        {
                            "code": "153591", 
                            "display": "glimepiride 2 MG Oral Tablet [Amaryl]", 
                            "system": "http://www.nlm.nih.gov/research/umls/rxnorm"
                        }
                    ], 
                    "text": "glimepiride 2 MG Oral Tablet [Amaryl]"
                }, 
                "quantity": {
                    "code": "{tablets}", 
                    "system": "http://unitsofmeasure.org", 
                    "unit": "tablets", 
                    "value": 30.0
                }, 
                "resourceType": "MedicationDispense", 
                "status": "completed", 
                "subject": {
                    "reference": "Patient/ehealth-1869612"
                }, 
                "text": {
                    "div": "<div xmlns=\"http://www.w3.org/1999/xhtml\">Dispensed 30 tablets = 30 day supply of glimepiride 2 MG Oral Tablet [Amaryl]</div>", 
                    "status": "generated"
                }, 
                "whenHandedOver": "2004-12-13"
            }
        }, 
        {
            "request": {
                "method": "PUT", 
                "url": "MedicationDispense/ehealth-MedicationDispense-1180"
            }, 
            "resource": {
                "authorizingPrescription": [
                    {
                        "reference": "MedicationRequest/ehealth-MedicationRequest-213"
                    }
                ], 
                "daysSupply": {
                    "code": "d", 
                    "system": "http://unitsofmeasure.org", 
                    "unit": "days", 
                    "value": 30
                }, 
                "id": "ehealth-MedicationDispense-1180", 
                "medicationCodeableConcept": {
                    "coding": [
                        {
                            "code": "153591", 
                            "display": "glimepiride 2 MG Oral Tablet [Amaryl]", 
                            "system": "http://www.nlm.nih.gov/research/umls/rxnorm"
                        }
                    ], 
                    "text": "glimepiride 2 MG Oral Tablet [Amaryl]"
                }, 
                "quantity": {
                    "code": "{tablets}", 
                    "system": "http://unitsofmeasure.org", 
                    "unit": "tablets", 
                    "value": 30.0
                }, 
                "resourceType": "MedicationDispense", 
                "status": "completed", 
                "subject": {
                    "reference": "Patient/ehealth-1869612"
                }, 
                "text": {
                    "div": "<div xmlns=\"http://www.w3.org/1999/xhtml\">Dispensed 30 tablets = 30 day supply of glimepiride 2 MG Oral Tablet [Amaryl]</div>", 
                    "status": "generated"
                }, 
                "whenHandedOver": "2005-08-28"
            }
        }, 
        {
            "request": {
                "method": "PUT", 
                "url": "MedicationDispense/ehealth-MedicationDispense-1177"
            }, 
            "resource": {
                "authorizingPrescription": [
                    {
                        "reference": "MedicationRequest/ehealth-MedicationRequest-213"
                    }
                ], 
                "daysSupply": {
                    "code": "d", 
                    "system": "http://unitsofmeasure.org", 
                    "unit": "days", 
                    "value": 30
                }, 
                "id": "ehealth-MedicationDispense-1177", 
                "medicationCodeableConcept": {
                    "coding": [
                        {
                            "code": "153591", 
                            "display": "glimepiride 2 MG Oral Tablet [Amaryl]", 
                            "system": "http://www.nlm.nih.gov/research/umls/rxnorm"
                        }
                    ], 
                    "text": "glimepiride 2 MG Oral Tablet [Amaryl]"
                }, 
                "quantity": {
                    "code": "{tablets}", 
                    "system": "http://unitsofmeasure.org", 
                    "unit": "tablets", 
                    "value": 30.0
                }, 
                "resourceType": "MedicationDispense", 
                "status": "completed", 
                "subject": {
                    "reference": "Patient/ehealth-1869612"
                }, 
                "text": {
                    "div": "<div xmlns=\"http://www.w3.org/1999/xhtml\">Dispensed 30 tablets = 30 day supply of glimepiride 2 MG Oral Tablet [Amaryl]</div>", 
                    "status": "generated"
                }, 
                "whenHandedOver": "2005-04-17"
            }
        }, 
        {
            "request": {
                "method": "PUT", 
                "url": "MedicationDispense/ehealth-MedicationDispense-1167"
            }, 
            "resource": {
                "authorizingPrescription": [
                    {
                        "reference": "MedicationRequest/ehealth-MedicationRequest-213"
                    }
                ], 
                "daysSupply": {
                    "code": "d", 
                    "system": "http://unitsofmeasure.org", 
                    "unit": "days", 
                    "value": 30
                }, 
                "id": "ehealth-MedicationDispense-1167", 
                "medicationCodeableConcept": {
                    "coding": [
                        {
                            "code": "153591", 
                            "display": "glimepiride 2 MG Oral Tablet [Amaryl]", 
                            "system": "http://www.nlm.nih.gov/research/umls/rxnorm"
                        }
                    ], 
                    "text": "glimepiride 2 MG Oral Tablet [Amaryl]"
                }, 
                "quantity": {
                    "code": "{tablets}", 
                    "system": "http://unitsofmeasure.org", 
                    "unit": "tablets", 
                    "value": 30.0
                }, 
                "resourceType": "MedicationDispense", 
                "status": "completed", 
                "subject": {
                    "reference": "Patient/ehealth-1869612"
                }, 
                "text": {
                    "div": "<div xmlns=\"http://www.w3.org/1999/xhtml\">Dispensed 30 tablets = 30 day supply of glimepiride 2 MG Oral Tablet [Amaryl]</div>", 
                    "status": "generated"
                }, 
                "whenHandedOver": "2004-06-04"
            }
        }, 
        {
            "request": {
                "method": "PUT", 
                "url": "MedicationDispense/ehealth-MedicationDispense-1174"
            }, 
            "resource": {
                "authorizingPrescription": [
                    {
                        "reference": "MedicationRequest/ehealth-MedicationRequest-213"
                    }
                ], 
                "daysSupply": {
                    "code": "d", 
                    "system": "http://unitsofmeasure.org", 
                    "unit": "days", 
                    "value": 30
                }, 
                "id": "ehealth-MedicationDispense-1174", 
                "medicationCodeableConcept": {
                    "coding": [
                        {
                            "code": "153591", 
                            "display": "glimepiride 2 MG Oral Tablet [Amaryl]", 
                            "system": "http://www.nlm.nih.gov/research/umls/rxnorm"
                        }
                    ], 
                    "text": "glimepiride 2 MG Oral Tablet [Amaryl]"
                }, 
                "quantity": {
                    "code": "{tablets}", 
                    "system": "http://unitsofmeasure.org", 
                    "unit": "tablets", 
                    "value": 30.0
                }, 
                "resourceType": "MedicationDispense", 
                "status": "completed", 
                "subject": {
                    "reference": "Patient/ehealth-1869612"
                }, 
                "text": {
                    "div": "<div xmlns=\"http://www.w3.org/1999/xhtml\">Dispensed 30 tablets = 30 day supply of glimepiride 2 MG Oral Tablet [Amaryl]</div>", 
                    "status": "generated"
                }, 
                "whenHandedOver": "2005-01-09"
            }
        }, 
        {
            "request": {
                "method": "PUT", 
                "url": "MedicationDispense/ehealth-MedicationDispense-1171"
            }, 
            "resource": {
                "authorizingPrescription": [
                    {
                        "reference": "MedicationRequest/ehealth-MedicationRequest-213"
                    }
                ], 
                "daysSupply": {
                    "code": "d", 
                    "system": "http://unitsofmeasure.org", 
                    "unit": "days", 
                    "value": 30
                }, 
                "id": "ehealth-MedicationDispense-1171", 
                "medicationCodeableConcept": {
                    "coding": [
                        {
                            "code": "153591", 
                            "display": "glimepiride 2 MG Oral Tablet [Amaryl]", 
                            "system": "http://www.nlm.nih.gov/research/umls/rxnorm"
                        }
                    ], 
                    "text": "glimepiride 2 MG Oral Tablet [Amaryl]"
                }, 
                "quantity": {
                    "code": "{tablets}", 
                    "system": "http://unitsofmeasure.org", 
                    "unit": "tablets", 
                    "value": 30.0
                }, 
                "resourceType": "MedicationDispense", 
                "status": "completed", 
                "subject": {
                    "reference": "Patient/ehealth-1869612"
                }, 
                "text": {
                    "div": "<div xmlns=\"http://www.w3.org/1999/xhtml\">Dispensed 30 tablets = 30 day supply of glimepiride 2 MG Oral Tablet [Amaryl]</div>", 
                    "status": "generated"
                }, 
                "whenHandedOver": "2004-10-08"
            }
        }, 
        {
            "request": {
                "method": "PUT", 
                "url": "MedicationDispense/ehealth-MedicationDispense-1176"
            }, 
            "resource": {
                "authorizingPrescription": [
                    {
                        "reference": "MedicationRequest/ehealth-MedicationRequest-213"
                    }
                ], 
                "daysSupply": {
                    "code": "d", 
                    "system": "http://unitsofmeasure.org", 
                    "unit": "days", 
                    "value": 30
                }, 
                "id": "ehealth-MedicationDispense-1176", 
                "medicationCodeableConcept": {
                    "coding": [
                        {
                            "code": "153591", 
                            "display": "glimepiride 2 MG Oral Tablet [Amaryl]", 
                            "system": "http://www.nlm.nih.gov/research/umls/rxnorm"
                        }
                    ], 
                    "text": "glimepiride 2 MG Oral Tablet [Amaryl]"
                }, 
                "quantity": {
                    "code": "{tablets}", 
                    "system": "http://unitsofmeasure.org", 
                    "unit": "tablets", 
                    "value": 30.0
                }, 
                "resourceType": "MedicationDispense", 
                "status": "completed", 
                "subject": {
                    "reference": "Patient/ehealth-1869612"
                }, 
                "text": {
                    "div": "<div xmlns=\"http://www.w3.org/1999/xhtml\">Dispensed 30 tablets = 30 day supply of glimepiride 2 MG Oral Tablet [Amaryl]</div>", 
                    "status": "generated"
                }, 
                "whenHandedOver": "2005-03-15"
            }
        }, 
        {
            "request": {
                "method": "PUT", 
                "url": "MedicationRequest/ehealth-MedicationRequest-214"
            }, 
            "resource": {
                "dispenseRequest": {
                    "expectedSupplyDuration": {
                        "code": "d", 
                        "system": "http://unitsofmeasure.org", 
                        "unit": "days", 
                        "value": 30
                    }, 
                    "numberOfRepeatsAllowed": 1, 
                    "quantity": {
                        "code": "{tablet}", 
                        "system": "http://unitsofmeasure.org", 
                        "unit": "{tablet}", 
                        "value": 60.0
                    }
                }, 
                "dosageInstruction": [
                    {
                        "doseQuantity": {
                            "code": "{tablet}", 
                            "system": "http://unitsofmeasure.org", 
                            "unit": "{tablet}", 
                            "value": 1.0
                        }, 
                        "text": "1 bid", 
                        "timing": {
                            "repeat": {
                                "boundsPeriod": {
                                    "start": "2004-04-30"
                                }, 
                                "frequency": 2, 
                                "period": 1, 
                                "periodUnit": "d"
                            }
                        }
                    }
                ], 
                "id": "ehealth-MedicationRequest-214", 
                "intent": "order", 
                "medicationCodeableConcept": {
                    "coding": [
                        {
                            "code": "197449", 
                            "display": "Cefaclor 500 MG Oral Capsule", 
                            "system": "http://www.nlm.nih.gov/research/umls/rxnorm"
                        }
                    ], 
                    "text": "Cefaclor 500 MG Oral Capsule"
                }, 
                "resourceType": "MedicationRequest", 
                "status": "active", 
                "subject": {
                    "reference": "Patient/ehealth-1869612"
                }, 
                "text": {
                    "div": "<div xmlns=\"http://www.w3.org/1999/xhtml\">Cefaclor 500 MG Oral Capsule (rxnorm: 197449)</div>", 
                    "status": "generated"
                }
            }
        }, 
        {
            "request": {
                "method": "PUT", 
                "url": "MedicationDispense/ehealth-MedicationDispense-1222"
            }, 
            "resource": {
                "authorizingPrescription": [
                    {
                        "reference": "MedicationRequest/ehealth-MedicationRequest-214"
                    }
                ], 
                "daysSupply": {
                    "code": "d", 
                    "system": "http://unitsofmeasure.org", 
                    "unit": "days", 
                    "value": 30
                }, 
                "id": "ehealth-MedicationDispense-1222", 
                "medicationCodeableConcept": {
                    "coding": [
                        {
                            "code": "197449", 
                            "display": "Cefaclor 500 MG Oral Capsule", 
                            "system": "http://www.nlm.nih.gov/research/umls/rxnorm"
                        }
                    ], 
                    "text": "Cefaclor 500 MG Oral Capsule"
                }, 
                "quantity": {
                    "code": "{tablets}", 
                    "system": "http://unitsofmeasure.org", 
                    "unit": "tablets", 
                    "value": 60.0
                }, 
                "resourceType": "MedicationDispense", 
                "status": "completed", 
                "subject": {
                    "reference": "Patient/ehealth-1869612"
                }, 
                "text": {
                    "div": "<div xmlns=\"http://www.w3.org/1999/xhtml\">Dispensed 60 tablets = 30 day supply of Cefaclor 500 MG Oral Capsule</div>", 
                    "status": "generated"
                }, 
                "whenHandedOver": "2004-04-30"
            }
        }, 
        {
            "request": {
                "method": "PUT", 
                "url": "MedicationRequest/ehealth-MedicationRequest-215"
            }, 
            "resource": {
                "dispenseRequest": {
                    "expectedSupplyDuration": {
                        "code": "d", 
                        "system": "http://unitsofmeasure.org", 
                        "unit": "days", 
                        "value": 30
                    }, 
                    "numberOfRepeatsAllowed": 1, 
                    "quantity": {
                        "code": "{tablet}", 
                        "system": "http://unitsofmeasure.org", 
                        "unit": "{tablet}", 
                        "value": 30.0
                    }
                }, 
                "dosageInstruction": [
                    {
                        "doseQuantity": {
                            "code": "{tablet}", 
                            "system": "http://unitsofmeasure.org", 
                            "unit": "{tablet}", 
                            "value": 1.0
                        }, 
                        "text": "1 daily", 
                        "timing": {
                            "repeat": {
                                "boundsPeriod": {
                                    "start": "2005-08-01"
                                }, 
                                "frequency": 1, 
                                "period": 1, 
                                "periodUnit": "d"
                            }
                        }
                    }
                ], 
                "id": "ehealth-MedicationRequest-215", 
                "intent": "order", 
                "medicationCodeableConcept": {
                    "coding": [
                        {
                            "code": "199246", 
                            "display": "glimepiride 2 MG Oral Tablet", 
                            "system": "http://www.nlm.nih.gov/research/umls/rxnorm"
                        }
                    ], 
                    "text": "glimepiride 2 MG Oral Tablet"
                }, 
                "resourceType": "MedicationRequest", 
                "status": "active", 
                "subject": {
                    "reference": "Patient/ehealth-1869612"
                }, 
                "text": {
                    "div": "<div xmlns=\"http://www.w3.org/1999/xhtml\">glimepiride 2 MG Oral Tablet (rxnorm: 199246)</div>", 
                    "status": "generated"
                }
            }
        }, 
        {
            "request": {
                "method": "PUT", 
                "url": "MedicationDispense/ehealth-MedicationDispense-1219"
            }, 
            "resource": {
                "authorizingPrescription": [
                    {
                        "reference": "MedicationRequest/ehealth-MedicationRequest-215"
                    }
                ], 
                "daysSupply": {
                    "code": "d", 
                    "system": "http://unitsofmeasure.org", 
                    "unit": "days", 
                    "value": 30
                }, 
                "id": "ehealth-MedicationDispense-1219", 
                "medicationCodeableConcept": {
                    "coding": [
                        {
                            "code": "199246", 
                            "display": "glimepiride 2 MG Oral Tablet", 
                            "system": "http://www.nlm.nih.gov/research/umls/rxnorm"
                        }
                    ], 
                    "text": "glimepiride 2 MG Oral Tablet"
                }, 
                "quantity": {
                    "code": "{tablets}", 
                    "system": "http://unitsofmeasure.org", 
                    "unit": "tablets", 
                    "value": 45.0
                }, 
                "resourceType": "MedicationDispense", 
                "status": "completed", 
                "subject": {
                    "reference": "Patient/ehealth-1869612"
                }, 
                "text": {
                    "div": "<div xmlns=\"http://www.w3.org/1999/xhtml\">Dispensed 45 tablets = 30 day supply of glimepiride 2 MG Oral Tablet</div>", 
                    "status": "generated"
                }, 
                "whenHandedOver": "2009-04-04"
            }
        }, 
        {
            "request": {
                "method": "PUT", 
                "url": "MedicationDispense/ehealth-MedicationDispense-1220"
            }, 
            "resource": {
                "authorizingPrescription": [
                    {
                        "reference": "MedicationRequest/ehealth-MedicationRequest-215"
                    }
                ], 
                "daysSupply": {
                    "code": "d", 
                    "system": "http://unitsofmeasure.org", 
                    "unit": "days", 
                    "value": 30
                }, 
                "id": "ehealth-MedicationDispense-1220", 
                "medicationCodeableConcept": {
                    "coding": [
                        {
                            "code": "199246", 
                            "display": "glimepiride 2 MG Oral Tablet", 
                            "system": "http://www.nlm.nih.gov/research/umls/rxnorm"
                        }
                    ], 
                    "text": "glimepiride 2 MG Oral Tablet"
                }, 
                "quantity": {
                    "code": "{tablets}", 
                    "system": "http://unitsofmeasure.org", 
                    "unit": "tablets", 
                    "value": 45.0
                }, 
                "resourceType": "MedicationDispense", 
                "status": "completed", 
                "subject": {
                    "reference": "Patient/ehealth-1869612"
                }, 
                "text": {
                    "div": "<div xmlns=\"http://www.w3.org/1999/xhtml\">Dispensed 45 tablets = 30 day supply of glimepiride 2 MG Oral Tablet</div>", 
                    "status": "generated"
                }, 
                "whenHandedOver": "2009-05-03"
            }
        }, 
        {
            "request": {
                "method": "PUT", 
                "url": "MedicationDispense/ehealth-MedicationDispense-1221"
            }, 
            "resource": {
                "authorizingPrescription": [
                    {
                        "reference": "MedicationRequest/ehealth-MedicationRequest-215"
                    }
                ], 
                "daysSupply": {
                    "code": "d", 
                    "system": "http://unitsofmeasure.org", 
                    "unit": "days", 
                    "value": 30
                }, 
                "id": "ehealth-MedicationDispense-1221", 
                "medicationCodeableConcept": {
                    "coding": [
                        {
                            "code": "199246", 
                            "display": "glimepiride 2 MG Oral Tablet", 
                            "system": "http://www.nlm.nih.gov/research/umls/rxnorm"
                        }
                    ], 
                    "text": "glimepiride 2 MG Oral Tablet"
                }, 
                "quantity": {
                    "code": "{tablets}", 
                    "system": "http://unitsofmeasure.org", 
                    "unit": "tablets", 
                    "value": 45.0
                }, 
                "resourceType": "MedicationDispense", 
                "status": "completed", 
                "subject": {
                    "reference": "Patient/ehealth-1869612"
                }, 
                "text": {
                    "div": "<div xmlns=\"http://www.w3.org/1999/xhtml\">Dispensed 45 tablets = 30 day supply of glimepiride 2 MG Oral Tablet</div>", 
                    "status": "generated"
                }, 
                "whenHandedOver": "2009-06-08"
            }
        }, 
        {
            "request": {
                "method": "PUT", 
                "url": "MedicationDispense/ehealth-MedicationDispense-1214"
            }, 
            "resource": {
                "authorizingPrescription": [
                    {
                        "reference": "MedicationRequest/ehealth-MedicationRequest-215"
                    }
                ], 
                "daysSupply": {
                    "code": "d", 
                    "system": "http://unitsofmeasure.org", 
                    "unit": "days", 
                    "value": 30
                }, 
                "id": "ehealth-MedicationDispense-1214", 
                "medicationCodeableConcept": {
                    "coding": [
                        {
                            "code": "199246", 
                            "display": "glimepiride 2 MG Oral Tablet", 
                            "system": "http://www.nlm.nih.gov/research/umls/rxnorm"
                        }
                    ], 
                    "text": "glimepiride 2 MG Oral Tablet"
                }, 
                "quantity": {
                    "code": "{tablets}", 
                    "system": "http://unitsofmeasure.org", 
                    "unit": "tablets", 
                    "value": 45.0
                }, 
                "resourceType": "MedicationDispense", 
                "status": "completed", 
                "subject": {
                    "reference": "Patient/ehealth-1869612"
                }, 
                "text": {
                    "div": "<div xmlns=\"http://www.w3.org/1999/xhtml\">Dispensed 45 tablets = 30 day supply of glimepiride 2 MG Oral Tablet</div>", 
                    "status": "generated"
                }, 
                "whenHandedOver": "2008-10-12"
            }
        }, 
        {
            "request": {
                "method": "PUT", 
                "url": "MedicationDispense/ehealth-MedicationDispense-1218"
            }, 
            "resource": {
                "authorizingPrescription": [
                    {
                        "reference": "MedicationRequest/ehealth-MedicationRequest-215"
                    }
                ], 
                "daysSupply": {
                    "code": "d", 
                    "system": "http://unitsofmeasure.org", 
                    "unit": "days", 
                    "value": 30
                }, 
                "id": "ehealth-MedicationDispense-1218", 
                "medicationCodeableConcept": {
                    "coding": [
                        {
                            "code": "199246", 
                            "display": "glimepiride 2 MG Oral Tablet", 
                            "system": "http://www.nlm.nih.gov/research/umls/rxnorm"
                        }
                    ], 
                    "text": "glimepiride 2 MG Oral Tablet"
                }, 
                "quantity": {
                    "code": "{tablets}", 
                    "system": "http://unitsofmeasure.org", 
                    "unit": "tablets", 
                    "value": 45.0
                }, 
                "resourceType": "MedicationDispense", 
                "status": "completed", 
                "subject": {
                    "reference": "Patient/ehealth-1869612"
                }, 
                "text": {
                    "div": "<div xmlns=\"http://www.w3.org/1999/xhtml\">Dispensed 45 tablets = 30 day supply of glimepiride 2 MG Oral Tablet</div>", 
                    "status": "generated"
                }, 
                "whenHandedOver": "2009-03-06"
            }
        }, 
        {
            "request": {
                "method": "PUT", 
                "url": "MedicationDispense/ehealth-MedicationDispense-1216"
            }, 
            "resource": {
                "authorizingPrescription": [
                    {
                        "reference": "MedicationRequest/ehealth-MedicationRequest-215"
                    }
                ], 
                "daysSupply": {
                    "code": "d", 
                    "system": "http://unitsofmeasure.org", 
                    "unit": "days", 
                    "value": 30
                }, 
                "id": "ehealth-MedicationDispense-1216", 
                "medicationCodeableConcept": {
                    "coding": [
                        {
                            "code": "199246", 
                            "display": "glimepiride 2 MG Oral Tablet", 
                            "system": "http://www.nlm.nih.gov/research/umls/rxnorm"
                        }
                    ], 
                    "text": "glimepiride 2 MG Oral Tablet"
                }, 
                "quantity": {
                    "code": "{tablets}", 
                    "system": "http://unitsofmeasure.org", 
                    "unit": "tablets", 
                    "value": 45.0
                }, 
                "resourceType": "MedicationDispense", 
                "status": "completed", 
                "subject": {
                    "reference": "Patient/ehealth-1869612"
                }, 
                "text": {
                    "div": "<div xmlns=\"http://www.w3.org/1999/xhtml\">Dispensed 45 tablets = 30 day supply of glimepiride 2 MG Oral Tablet</div>", 
                    "status": "generated"
                }, 
                "whenHandedOver": "2009-01-05"
            }
        }, 
        {
            "request": {
                "method": "PUT", 
                "url": "MedicationDispense/ehealth-MedicationDispense-1213"
            }, 
            "resource": {
                "authorizingPrescription": [
                    {
                        "reference": "MedicationRequest/ehealth-MedicationRequest-215"
                    }
                ], 
                "daysSupply": {
                    "code": "d", 
                    "system": "http://unitsofmeasure.org", 
                    "unit": "days", 
                    "value": 30
                }, 
                "id": "ehealth-MedicationDispense-1213", 
                "medicationCodeableConcept": {
                    "coding": [
                        {
                            "code": "199246", 
                            "display": "glimepiride 2 MG Oral Tablet", 
                            "system": "http://www.nlm.nih.gov/research/umls/rxnorm"
                        }
                    ], 
                    "text": "glimepiride 2 MG Oral Tablet"
                }, 
                "quantity": {
                    "code": "{tablets}", 
                    "system": "http://unitsofmeasure.org", 
                    "unit": "tablets", 
                    "value": 30.0
                }, 
                "resourceType": "MedicationDispense", 
                "status": "completed", 
                "subject": {
                    "reference": "Patient/ehealth-1869612"
                }, 
                "text": {
                    "div": "<div xmlns=\"http://www.w3.org/1999/xhtml\">Dispensed 30 tablets = 30 day supply of glimepiride 2 MG Oral Tablet</div>", 
                    "status": "generated"
                }, 
                "whenHandedOver": "2005-08-01"
            }
        }, 
        {
            "request": {
                "method": "PUT", 
                "url": "MedicationDispense/ehealth-MedicationDispense-1217"
            }, 
            "resource": {
                "authorizingPrescription": [
                    {
                        "reference": "MedicationRequest/ehealth-MedicationRequest-215"
                    }
                ], 
                "daysSupply": {
                    "code": "d", 
                    "system": "http://unitsofmeasure.org", 
                    "unit": "days", 
                    "value": 30
                }, 
                "id": "ehealth-MedicationDispense-1217", 
                "medicationCodeableConcept": {
                    "coding": [
                        {
                            "code": "199246", 
                            "display": "glimepiride 2 MG Oral Tablet", 
                            "system": "http://www.nlm.nih.gov/research/umls/rxnorm"
                        }
                    ], 
                    "text": "glimepiride 2 MG Oral Tablet"
                }, 
                "quantity": {
                    "code": "{tablets}", 
                    "system": "http://unitsofmeasure.org", 
                    "unit": "tablets", 
                    "value": 45.0
                }, 
                "resourceType": "MedicationDispense", 
                "status": "completed", 
                "subject": {
                    "reference": "Patient/ehealth-1869612"
                }, 
                "text": {
                    "div": "<div xmlns=\"http://www.w3.org/1999/xhtml\">Dispensed 45 tablets = 30 day supply of glimepiride 2 MG Oral Tablet</div>", 
                    "status": "generated"
                }, 
                "whenHandedOver": "2009-02-04"
            }
        }, 
        {
            "request": {
                "method": "PUT", 
                "url": "MedicationDispense/ehealth-MedicationDispense-1215"
            }, 
            "resource": {
                "authorizingPrescription": [
                    {
                        "reference": "MedicationRequest/ehealth-MedicationRequest-215"
                    }
                ], 
                "daysSupply": {
                    "code": "d", 
                    "system": "http://unitsofmeasure.org", 
                    "unit": "days", 
                    "value": 30
                }, 
                "id": "ehealth-MedicationDispense-1215", 
                "medicationCodeableConcept": {
                    "coding": [
                        {
                            "code": "199246", 
                            "display": "glimepiride 2 MG Oral Tablet", 
                            "system": "http://www.nlm.nih.gov/research/umls/rxnorm"
                        }
                    ], 
                    "text": "glimepiride 2 MG Oral Tablet"
                }, 
                "quantity": {
                    "code": "{tablets}", 
                    "system": "http://unitsofmeasure.org", 
                    "unit": "tablets", 
                    "value": 45.0
                }, 
                "resourceType": "MedicationDispense", 
                "status": "completed", 
                "subject": {
                    "reference": "Patient/ehealth-1869612"
                }, 
                "text": {
                    "div": "<div xmlns=\"http://www.w3.org/1999/xhtml\">Dispensed 45 tablets = 30 day supply of glimepiride 2 MG Oral Tablet</div>", 
                    "status": "generated"
                }, 
                "whenHandedOver": "2008-11-04"
            }
        }, 
        {
            "request": {
                "method": "PUT", 
                "url": "MedicationRequest/ehealth-MedicationRequest-216"
            }, 
            "resource": {
                "dispenseRequest": {
                    "expectedSupplyDuration": {
                        "code": "d", 
                        "system": "http://unitsofmeasure.org", 
                        "unit": "days", 
                        "value": 30
                    }, 
                    "numberOfRepeatsAllowed": 1, 
                    "quantity": {
                        "code": "{tablet}", 
                        "system": "http://unitsofmeasure.org", 
                        "unit": "{tablet}", 
                        "value": 30.0
                    }
                }, 
                "dosageInstruction": [
                    {
                        "doseQuantity": {
                            "code": "{tablet}", 
                            "system": "http://unitsofmeasure.org", 
                            "unit": "{tablet}", 
                            "value": 1.0
                        }, 
                        "text": "1 daily", 
                        "timing": {
                            "repeat": {
                                "boundsPeriod": {
                                    "start": "2008-10-12"
                                }, 
                                "frequency": 1, 
                                "period": 1, 
                                "periodUnit": "d"
                            }
                        }
                    }
                ], 
                "id": "ehealth-MedicationRequest-216", 
                "intent": "order", 
                "medicationCodeableConcept": {
                    "coding": [
                        {
                            "code": "197886", 
                            "display": "Hydrochlorothiazide 12.5 MG / Lisinopril 20 MG Oral Tablet", 
                            "system": "http://www.nlm.nih.gov/research/umls/rxnorm"
                        }
                    ], 
                    "text": "Hydrochlorothiazide 12.5 MG / Lisinopril 20 MG Oral Tablet"
                }, 
                "resourceType": "MedicationRequest", 
                "status": "active", 
                "subject": {
                    "reference": "Patient/ehealth-1869612"
                }, 
                "text": {
                    "div": "<div xmlns=\"http://www.w3.org/1999/xhtml\">Hydrochlorothiazide 12.5 MG / Lisinopril 20 MG Oral Tablet (rxnorm: 197886)</div>", 
                    "status": "generated"
                }
            }
        }, 
        {
            "request": {
                "method": "PUT", 
                "url": "MedicationDispense/ehealth-MedicationDispense-1165"
            }, 
            "resource": {
                "authorizingPrescription": [
                    {
                        "reference": "MedicationRequest/ehealth-MedicationRequest-216"
                    }
                ], 
                "daysSupply": {
                    "code": "d", 
                    "system": "http://unitsofmeasure.org", 
                    "unit": "days", 
                    "value": 30
                }, 
                "id": "ehealth-MedicationDispense-1165", 
                "medicationCodeableConcept": {
                    "coding": [
                        {
                            "code": "197886", 
                            "display": "Hydrochlorothiazide 12.5 MG / Lisinopril 20 MG Oral Tablet", 
                            "system": "http://www.nlm.nih.gov/research/umls/rxnorm"
                        }
                    ], 
                    "text": "Hydrochlorothiazide 12.5 MG / Lisinopril 20 MG Oral Tablet"
                }, 
                "quantity": {
                    "code": "{tablets}", 
                    "system": "http://unitsofmeasure.org", 
                    "unit": "tablets", 
                    "value": 30.0
                }, 
                "resourceType": "MedicationDispense", 
                "status": "completed", 
                "subject": {
                    "reference": "Patient/ehealth-1869612"
                }, 
                "text": {
                    "div": "<div xmlns=\"http://www.w3.org/1999/xhtml\">Dispensed 30 tablets = 30 day supply of Hydrochlorothiazide 12.5 MG / Lisinopril 20 MG Oral Tablet</div>", 
                    "status": "generated"
                }, 
                "whenHandedOver": "2008-11-10"
            }
        }, 
        {
            "request": {
                "method": "PUT", 
                "url": "MedicationDispense/ehealth-MedicationDispense-1164"
            }, 
            "resource": {
                "authorizingPrescription": [
                    {
                        "reference": "MedicationRequest/ehealth-MedicationRequest-216"
                    }
                ], 
                "daysSupply": {
                    "code": "d", 
                    "system": "http://unitsofmeasure.org", 
                    "unit": "days", 
                    "value": 30
                }, 
                "id": "ehealth-MedicationDispense-1164", 
                "medicationCodeableConcept": {
                    "coding": [
                        {
                            "code": "197886", 
                            "display": "Hydrochlorothiazide 12.5 MG / Lisinopril 20 MG Oral Tablet", 
                            "system": "http://www.nlm.nih.gov/research/umls/rxnorm"
                        }
                    ], 
                    "text": "Hydrochlorothiazide 12.5 MG / Lisinopril 20 MG Oral Tablet"
                }, 
                "quantity": {
                    "code": "{tablets}", 
                    "system": "http://unitsofmeasure.org", 
                    "unit": "tablets", 
                    "value": 30.0
                }, 
                "resourceType": "MedicationDispense", 
                "status": "completed", 
                "subject": {
                    "reference": "Patient/ehealth-1869612"
                }, 
                "text": {
                    "div": "<div xmlns=\"http://www.w3.org/1999/xhtml\">Dispensed 30 tablets = 30 day supply of Hydrochlorothiazide 12.5 MG / Lisinopril 20 MG Oral Tablet</div>", 
                    "status": "generated"
                }, 
                "whenHandedOver": "2008-10-12"
            }
        }, 
        {
            "request": {
                "method": "PUT", 
                "url": "MedicationRequest/ehealth-MedicationRequest-217"
            }, 
            "resource": {
                "dispenseRequest": {
                    "expectedSupplyDuration": {
                        "code": "d", 
                        "system": "http://unitsofmeasure.org", 
                        "unit": "days", 
                        "value": 30
                    }, 
                    "numberOfRepeatsAllowed": 1, 
                    "quantity": {
                        "code": "{tablet}", 
                        "system": "http://unitsofmeasure.org", 
                        "unit": "{tablet}", 
                        "value": 30.0
                    }
                }, 
                "dosageInstruction": [
                    {
                        "doseQuantity": {
                            "code": "{tablet}", 
                            "system": "http://unitsofmeasure.org", 
                            "unit": "{tablet}", 
                            "value": 1.0
                        }, 
                        "text": "1 daily", 
                        "timing": {
                            "repeat": {
                                "boundsPeriod": {
                                    "start": "2008-10-12"
                                }, 
                                "frequency": 1, 
                                "period": 1, 
                                "periodUnit": "d"
                            }
                        }
                    }
                ], 
                "id": "ehealth-MedicationRequest-217", 
                "intent": "order", 
                "medicationCodeableConcept": {
                    "coding": [
                        {
                            "code": "314077", 
                            "display": "Lisinopril 20 MG Oral Tablet", 
                            "system": "http://www.nlm.nih.gov/research/umls/rxnorm"
                        }
                    ], 
                    "text": "Lisinopril 20 MG Oral Tablet"
                }, 
                "resourceType": "MedicationRequest", 
                "status": "active", 
                "subject": {
                    "reference": "Patient/ehealth-1869612"
                }, 
                "text": {
                    "div": "<div xmlns=\"http://www.w3.org/1999/xhtml\">Lisinopril 20 MG Oral Tablet (rxnorm: 314077)</div>", 
                    "status": "generated"
                }
            }
        }, 
        {
            "request": {
                "method": "PUT", 
                "url": "MedicationDispense/ehealth-MedicationDispense-1210"
            }, 
            "resource": {
                "authorizingPrescription": [
                    {
                        "reference": "MedicationRequest/ehealth-MedicationRequest-217"
                    }
                ], 
                "daysSupply": {
                    "code": "d", 
                    "system": "http://unitsofmeasure.org", 
                    "unit": "days", 
                    "value": 30
                }, 
                "id": "ehealth-MedicationDispense-1210", 
                "medicationCodeableConcept": {
                    "coding": [
                        {
                            "code": "314077", 
                            "display": "Lisinopril 20 MG Oral Tablet", 
                            "system": "http://www.nlm.nih.gov/research/umls/rxnorm"
                        }
                    ], 
                    "text": "Lisinopril 20 MG Oral Tablet"
                }, 
                "quantity": {
                    "code": "{tablets}", 
                    "system": "http://unitsofmeasure.org", 
                    "unit": "tablets", 
                    "value": 30.0
                }, 
                "resourceType": "MedicationDispense", 
                "status": "completed", 
                "subject": {
                    "reference": "Patient/ehealth-1869612"
                }, 
                "text": {
                    "div": "<div xmlns=\"http://www.w3.org/1999/xhtml\">Dispensed 30 tablets = 30 day supply of Lisinopril 20 MG Oral Tablet</div>", 
                    "status": "generated"
                }, 
                "whenHandedOver": "2009-07-15"
            }
        }, 
        {
            "request": {
                "method": "PUT", 
                "url": "MedicationDispense/ehealth-MedicationDispense-1207"
            }, 
            "resource": {
                "authorizingPrescription": [
                    {
                        "reference": "MedicationRequest/ehealth-MedicationRequest-217"
                    }
                ], 
                "daysSupply": {
                    "code": "d", 
                    "system": "http://unitsofmeasure.org", 
                    "unit": "days", 
                    "value": 30
                }, 
                "id": "ehealth-MedicationDispense-1207", 
                "medicationCodeableConcept": {
                    "coding": [
                        {
                            "code": "314077", 
                            "display": "Lisinopril 20 MG Oral Tablet", 
                            "system": "http://www.nlm.nih.gov/research/umls/rxnorm"
                        }
                    ], 
                    "text": "Lisinopril 20 MG Oral Tablet"
                }, 
                "quantity": {
                    "code": "{tablets}", 
                    "system": "http://unitsofmeasure.org", 
                    "unit": "tablets", 
                    "value": 30.0
                }, 
                "resourceType": "MedicationDispense", 
                "status": "completed", 
                "subject": {
                    "reference": "Patient/ehealth-1869612"
                }, 
                "text": {
                    "div": "<div xmlns=\"http://www.w3.org/1999/xhtml\">Dispensed 30 tablets = 30 day supply of Lisinopril 20 MG Oral Tablet</div>", 
                    "status": "generated"
                }, 
                "whenHandedOver": "2008-10-12"
            }
        }, 
        {
            "request": {
                "method": "PUT", 
                "url": "MedicationDispense/ehealth-MedicationDispense-1209"
            }, 
            "resource": {
                "authorizingPrescription": [
                    {
                        "reference": "MedicationRequest/ehealth-MedicationRequest-217"
                    }
                ], 
                "daysSupply": {
                    "code": "d", 
                    "system": "http://unitsofmeasure.org", 
                    "unit": "days", 
                    "value": 30
                }, 
                "id": "ehealth-MedicationDispense-1209", 
                "medicationCodeableConcept": {
                    "coding": [
                        {
                            "code": "314077", 
                            "display": "Lisinopril 20 MG Oral Tablet", 
                            "system": "http://www.nlm.nih.gov/research/umls/rxnorm"
                        }
                    ], 
                    "text": "Lisinopril 20 MG Oral Tablet"
                }, 
                "quantity": {
                    "code": "{tablets}", 
                    "system": "http://unitsofmeasure.org", 
                    "unit": "tablets", 
                    "value": 30.0
                }, 
                "resourceType": "MedicationDispense", 
                "status": "completed", 
                "subject": {
                    "reference": "Patient/ehealth-1869612"
                }, 
                "text": {
                    "div": "<div xmlns=\"http://www.w3.org/1999/xhtml\">Dispensed 30 tablets = 30 day supply of Lisinopril 20 MG Oral Tablet</div>", 
                    "status": "generated"
                }, 
                "whenHandedOver": "2009-06-16"
            }
        }, 
        {
            "request": {
                "method": "PUT", 
                "url": "MedicationDispense/ehealth-MedicationDispense-1208"
            }, 
            "resource": {
                "authorizingPrescription": [
                    {
                        "reference": "MedicationRequest/ehealth-MedicationRequest-217"
                    }
                ], 
                "daysSupply": {
                    "code": "d", 
                    "system": "http://unitsofmeasure.org", 
                    "unit": "days", 
                    "value": 30
                }, 
                "id": "ehealth-MedicationDispense-1208", 
                "medicationCodeableConcept": {
                    "coding": [
                        {
                            "code": "314077", 
                            "display": "Lisinopril 20 MG Oral Tablet", 
                            "system": "http://www.nlm.nih.gov/research/umls/rxnorm"
                        }
                    ], 
                    "text": "Lisinopril 20 MG Oral Tablet"
                }, 
                "quantity": {
                    "code": "{tablets}", 
                    "system": "http://unitsofmeasure.org", 
                    "unit": "tablets", 
                    "value": 30.0
                }, 
                "resourceType": "MedicationDispense", 
                "status": "completed", 
                "subject": {
                    "reference": "Patient/ehealth-1869612"
                }, 
                "text": {
                    "div": "<div xmlns=\"http://www.w3.org/1999/xhtml\">Dispensed 30 tablets = 30 day supply of Lisinopril 20 MG Oral Tablet</div>", 
                    "status": "generated"
                }, 
                "whenHandedOver": "2008-11-12"
            }
        }, 
        {
            "request": {
                "method": "PUT", 
                "url": "MedicationDispense/ehealth-MedicationDispense-1211"
            }, 
            "resource": {
                "authorizingPrescription": [
                    {
                        "reference": "MedicationRequest/ehealth-MedicationRequest-217"
                    }
                ], 
                "daysSupply": {
                    "code": "d", 
                    "system": "http://unitsofmeasure.org", 
                    "unit": "days", 
                    "value": 30
                }, 
                "id": "ehealth-MedicationDispense-1211", 
                "medicationCodeableConcept": {
                    "coding": [
                        {
                            "code": "314077", 
                            "display": "Lisinopril 20 MG Oral Tablet", 
                            "system": "http://www.nlm.nih.gov/research/umls/rxnorm"
                        }
                    ], 
                    "text": "Lisinopril 20 MG Oral Tablet"
                }, 
                "quantity": {
                    "code": "{tablets}", 
                    "system": "http://unitsofmeasure.org", 
                    "unit": "tablets", 
                    "value": 30.0
                }, 
                "resourceType": "MedicationDispense", 
                "status": "completed", 
                "subject": {
                    "reference": "Patient/ehealth-1869612"
                }, 
                "text": {
                    "div": "<div xmlns=\"http://www.w3.org/1999/xhtml\">Dispensed 30 tablets = 30 day supply of Lisinopril 20 MG Oral Tablet</div>", 
                    "status": "generated"
                }, 
                "whenHandedOver": "2009-08-15"
            }
        }, 
        {
            "request": {
                "method": "PUT", 
                "url": "MedicationRequest/ehealth-MedicationRequest-218"
            }, 
            "resource": {
                "dispenseRequest": {
                    "expectedSupplyDuration": {
                        "code": "d", 
                        "system": "http://unitsofmeasure.org", 
                        "unit": "days", 
                        "value": 9
                    }, 
                    "numberOfRepeatsAllowed": 1, 
                    "quantity": {
                        "code": "{tablet}", 
                        "system": "http://unitsofmeasure.org", 
                        "unit": "{tablet}", 
                        "value": 28.0
                    }
                }, 
                "dosageInstruction": [
                    {
                        "doseQuantity": {
                            "code": "{tablet}", 
                            "system": "http://unitsofmeasure.org", 
                            "unit": "{tablet}", 
                            "value": 1.0
                        }, 
                        "text": "1 qid", 
                        "timing": {
                            "repeat": {
                                "boundsPeriod": {
                                    "start": "2008-11-12"
                                }, 
                                "frequency": 4, 
                                "period": 1, 
                                "periodUnit": "d"
                            }
                        }
                    }
                ], 
                "id": "ehealth-MedicationRequest-218", 
                "intent": "order", 
                "medicationCodeableConcept": {
                    "coding": [
                        {
                            "code": "309114", 
                            "display": "Cephalexin 500 MG Oral Capsule", 
                            "system": "http://www.nlm.nih.gov/research/umls/rxnorm"
                        }
                    ], 
                    "text": "Cephalexin 500 MG Oral Capsule"
                }, 
                "resourceType": "MedicationRequest", 
                "status": "active", 
                "subject": {
                    "reference": "Patient/ehealth-1869612"
                }, 
                "text": {
                    "div": "<div xmlns=\"http://www.w3.org/1999/xhtml\">Cephalexin 500 MG Oral Capsule (rxnorm: 309114)</div>", 
                    "status": "generated"
                }
            }
        }, 
        {
            "request": {
                "method": "PUT", 
                "url": "MedicationDispense/ehealth-MedicationDispense-1206"
            }, 
            "resource": {
                "authorizingPrescription": [
                    {
                        "reference": "MedicationRequest/ehealth-MedicationRequest-218"
                    }
                ], 
                "daysSupply": {
                    "code": "d", 
                    "system": "http://unitsofmeasure.org", 
                    "unit": "days", 
                    "value": 7
                }, 
                "id": "ehealth-MedicationDispense-1206", 
                "medicationCodeableConcept": {
                    "coding": [
                        {
                            "code": "309114", 
                            "display": "Cephalexin 500 MG Oral Capsule", 
                            "system": "http://www.nlm.nih.gov/research/umls/rxnorm"
                        }
                    ], 
                    "text": "Cephalexin 500 MG Oral Capsule"
                }, 
                "quantity": {
                    "code": "{tablets}", 
                    "system": "http://unitsofmeasure.org", 
                    "unit": "tablets", 
                    "value": 28.0
                }, 
                "resourceType": "MedicationDispense", 
                "status": "completed", 
                "subject": {
                    "reference": "Patient/ehealth-1869612"
                }, 
                "text": {
                    "div": "<div xmlns=\"http://www.w3.org/1999/xhtml\">Dispensed 28 tablets = 7 day supply of Cephalexin 500 MG Oral Capsule</div>", 
                    "status": "generated"
                }, 
                "whenHandedOver": "2009-06-22"
            }
        }, 
        {
            "request": {
                "method": "PUT", 
                "url": "MedicationDispense/ehealth-MedicationDispense-1205"
            }, 
            "resource": {
                "authorizingPrescription": [
                    {
                        "reference": "MedicationRequest/ehealth-MedicationRequest-218"
                    }
                ], 
                "daysSupply": {
                    "code": "d", 
                    "system": "http://unitsofmeasure.org", 
                    "unit": "days", 
                    "value": 9
                }, 
                "id": "ehealth-MedicationDispense-1205", 
                "medicationCodeableConcept": {
                    "coding": [
                        {
                            "code": "309114", 
                            "display": "Cephalexin 500 MG Oral Capsule", 
                            "system": "http://www.nlm.nih.gov/research/umls/rxnorm"
                        }
                    ], 
                    "text": "Cephalexin 500 MG Oral Capsule"
                }, 
                "quantity": {
                    "code": "{tablets}", 
                    "system": "http://unitsofmeasure.org", 
                    "unit": "tablets", 
                    "value": 28.0
                }, 
                "resourceType": "MedicationDispense", 
                "status": "completed", 
                "subject": {
                    "reference": "Patient/ehealth-1869612"
                }, 
                "text": {
                    "div": "<div xmlns=\"http://www.w3.org/1999/xhtml\">Dispensed 28 tablets = 9 day supply of Cephalexin 500 MG Oral Capsule</div>", 
                    "status": "generated"
                }, 
                "whenHandedOver": "2008-11-12"
            }
        }, 
        {
            "request": {
                "method": "PUT", 
                "url": "Condition/ehealth-Condition-438"
            }, 
            "resource": {
                "clinicalStatus": "active", 
                "code": {
                    "coding": [
                        {
                            "code": "68272006", 
                            "display": "Acute maxillary sinusitis", 
                            "system": "http://snomed.info/sct"
                        }
                    ], 
                    "text": "Acute maxillary sinusitis"
                }, 
                "id": "ehealth-Condition-438", 
                "onsetDateTime": "2004-01-08", 
                "resourceType": "Condition", 
                "subject": {
                    "reference": "Patient/ehealth-1869612"
                }, 
                "text": {
                    "div": "<div xmlns=\"http://www.w3.org/1999/xhtml\">Acute maxillary sinusitis</div>", 
                    "status": "generated"
                }, 
                "verificationStatus": "confirmed"
            }
        }, 
        {
            "request": {
                "method": "PUT", 
                "url": "Condition/ehealth-Condition-439"
            }, 
            "resource": {
                "clinicalStatus": "active", 
                "code": {
                    "coding": [
                        {
                            "code": "1201005", 
                            "display": "Benign essential hypertension", 
                            "system": "http://snomed.info/sct"
                        }
                    ], 
                    "text": "Benign essential hypertension"
                }, 
                "id": "ehealth-Condition-439", 
                "onsetDateTime": "2004-04-28", 
                "resourceType": "Condition", 
                "subject": {
                    "reference": "Patient/ehealth-1869612"
                }, 
                "text": {
                    "div": "<div xmlns=\"http://www.w3.org/1999/xhtml\">Benign essential hypertension</div>", 
                    "status": "generated"
                }, 
                "verificationStatus": "confirmed"
            }
        }, 
        {
            "request": {
                "method": "PUT", 
                "url": "Condition/ehealth-Condition-440"
            }, 
            "resource": {
                "clinicalStatus": "active", 
                "code": {
                    "coding": [
                        {
                            "code": "65363002", 
                            "display": "Otitis media", 
                            "system": "http://snomed.info/sct"
                        }
                    ], 
                    "text": "Otitis media"
                }, 
                "id": "ehealth-Condition-440", 
                "onsetDateTime": "2004-04-28", 
                "resourceType": "Condition", 
                "subject": {
                    "reference": "Patient/ehealth-1869612"
                }, 
                "text": {
                    "div": "<div xmlns=\"http://www.w3.org/1999/xhtml\">Otitis media</div>", 
                    "status": "generated"
                }, 
                "verificationStatus": "confirmed"
            }
        }, 
        {
            "request": {
                "method": "PUT", 
                "url": "Condition/ehealth-Condition-441"
            }, 
            "resource": {
                "clinicalStatus": "active", 
                "code": {
                    "coding": [
                        {
                            "code": "198036002", 
                            "display": "Impotence of organic origin", 
                            "system": "http://snomed.info/sct"
                        }
                    ], 
                    "text": "Impotence of organic origin"
                }, 
                "id": "ehealth-Condition-441", 
                "onsetDateTime": "2004-08-23", 
                "resourceType": "Condition", 
                "subject": {
                    "reference": "Patient/ehealth-1869612"
                }, 
                "text": {
                    "div": "<div xmlns=\"http://www.w3.org/1999/xhtml\">Impotence of organic origin</div>", 
                    "status": "generated"
                }, 
                "verificationStatus": "confirmed"
            }
        }, 
        {
            "request": {
                "method": "PUT", 
                "url": "Condition/ehealth-Condition-442"
            }, 
            "resource": {
                "clinicalStatus": "active", 
                "code": {
                    "coding": [
                        {
                            "code": "85848002", 
                            "display": "Superficial injury of cornea", 
                            "system": "http://snomed.info/sct"
                        }
                    ], 
                    "text": "Superficial injury of cornea"
                }, 
                "id": "ehealth-Condition-442", 
                "onsetDateTime": "2005-08-03", 
                "resourceType": "Condition", 
                "subject": {
                    "reference": "Patient/ehealth-1869612"
                }, 
                "text": {
                    "div": "<div xmlns=\"http://www.w3.org/1999/xhtml\">Superficial injury of cornea</div>", 
                    "status": "generated"
                }, 
                "verificationStatus": "confirmed"
            }
        }, 
        {
            "request": {
                "method": "PUT", 
                "url": "Condition/ehealth-Condition-443"
            }, 
            "resource": {
                "clinicalStatus": "active", 
                "code": {
                    "coding": [
                        {
                            "code": "193995004", 
                            "display": "Acquired stenosis of nasolacrimal duct", 
                            "system": "http://snomed.info/sct"
                        }
                    ], 
                    "text": "Acquired stenosis of nasolacrimal duct"
                }, 
                "id": "ehealth-Condition-443", 
                "onsetDateTime": "2005-08-21", 
                "resourceType": "Condition", 
                "subject": {
                    "reference": "Patient/ehealth-1869612"
                }, 
                "text": {
                    "div": "<div xmlns=\"http://www.w3.org/1999/xhtml\">Acquired stenosis of nasolacrimal duct</div>", 
                    "status": "generated"
                }, 
                "verificationStatus": "confirmed"
            }
        }, 
        {
            "request": {
                "method": "PUT", 
                "url": "Condition/ehealth-Condition-444"
            }, 
            "resource": {
                "clinicalStatus": "active", 
                "code": {
                    "coding": [
                        {
                            "code": "55566008", 
                            "display": "Accident", 
                            "system": "http://snomed.info/sct"
                        }
                    ], 
                    "text": "Accident"
                }, 
                "id": "ehealth-Condition-444", 
                "onsetDateTime": "2006-11-13", 
                "resourceType": "Condition", 
                "subject": {
                    "reference": "Patient/ehealth-1869612"
                }, 
                "text": {
                    "div": "<div xmlns=\"http://www.w3.org/1999/xhtml\">Accident</div>", 
                    "status": "generated"
                }, 
                "verificationStatus": "confirmed"
            }
        }, 
        {
            "request": {
                "method": "PUT", 
                "url": "Condition/ehealth-Condition-445"
            }, 
            "resource": {
                "clinicalStatus": "active", 
                "code": {
                    "coding": [
                        {
                            "code": "58075000", 
                            "display": "Contusion of toe", 
                            "system": "http://snomed.info/sct"
                        }
                    ], 
                    "text": "Contusion of toe"
                }, 
                "id": "ehealth-Condition-445", 
                "onsetDateTime": "2006-11-13", 
                "resourceType": "Condition", 
                "subject": {
                    "reference": "Patient/ehealth-1869612"
                }, 
                "text": {
                    "div": "<div xmlns=\"http://www.w3.org/1999/xhtml\">Contusion of toe</div>", 
                    "status": "generated"
                }, 
                "verificationStatus": "confirmed"
            }
        }, 
        {
            "request": {
                "method": "PUT", 
                "url": "Condition/ehealth-Condition-446"
            }, 
            "resource": {
                "clinicalStatus": "active", 
                "code": {
                    "coding": [
                        {
                            "code": "44054006", 
                            "display": "Diabetes mellitus type 2", 
                            "system": "http://snomed.info/sct"
                        }
                    ], 
                    "text": "Diabetes mellitus type 2"
                }, 
                "id": "ehealth-Condition-446", 
                "onsetDateTime": "2006-11-13", 
                "resourceType": "Condition", 
                "subject": {
                    "reference": "Patient/ehealth-1869612"
                }, 
                "text": {
                    "div": "<div xmlns=\"http://www.w3.org/1999/xhtml\">Diabetes mellitus type 2</div>", 
                    "status": "generated"
                }, 
                "verificationStatus": "confirmed"
            }
        }, 
        {
            "request": {
                "method": "PUT", 
                "url": "Condition/ehealth-Condition-447"
            }, 
            "resource": {
                "clinicalStatus": "active", 
                "code": {
                    "coding": [
                        {
                            "code": "128302006", 
                            "display": "Chronic hepatitis C", 
                            "system": "http://snomed.info/sct"
                        }
                    ], 
                    "text": "Chronic hepatitis C"
                }, 
                "id": "ehealth-Condition-447", 
                "onsetDateTime": "2007-12-11", 
                "resourceType": "Condition", 
                "subject": {
                    "reference": "Patient/ehealth-1869612"
                }, 
                "text": {
                    "div": "<div xmlns=\"http://www.w3.org/1999/xhtml\">Chronic hepatitis C</div>", 
                    "status": "generated"
                }, 
                "verificationStatus": "confirmed"
            }
        }, 
        {
            "request": {
                "method": "PUT", 
                "url": "Observation/ehealth-smokingstatus-31"
            }, 
            "resource": {
                "category": [
                    {
                        "coding": [
                            {
                                "code": "social-history", 
                                "display": "Social History", 
                                "system": "http://hl7.org/fhir/observation-category"
                            }
                        ], 
                        "text": "Social History"
                    }
                ], 
                "code": {
                    "coding": [
                        {
                            "code": "72166-2", 
                            "display": "Tobacco smoking status", 
                            "system": "http://loinc.org"
                        }
                    ], 
                    "text": "Tobacco smoking status"
                }, 
                "effectiveDateTime": "2016-11-02", 
                "id": "ehealth-smokingstatus-31", 
                "identifier": [
                    {
                        "system": "http://www.bmc.nl/zorgportal/identifiers/observations", 
                        "use": "official", 
                        "value": "ehealth-31"
                    }
                ], 
                "performer": [
                    {
                        "reference": "Practitioner/ehealth-Practitioner-71614502"
                    }
                ], 
                "resourceType": "Observation", 
                "status": "final", 
                "subject": {
                    "reference": "Patient/ehealth-1869612"
                }, 
                "text": {
                    "div": "<div xmlns=\"http://www.w3.org/1999/xhtml\">Tobacco smoking status: Current every day smoker</div>", 
                    "status": "generated"
                }, 
                "valueCodeableConcept": {
                    "coding": [
                        {
                            "code": "449868002", 
                            "display": "Current every day smoker", 
                            "system": "http://snomed.info/sct"
                        }
                    ], 
                    "text": "Current every day smoker"
                }
            }
        }, 
        {
            "request": {
                "method": "PUT", 
                "url": "AllergyIntolerance/ehealth-AllergyIntolerance-43"
            }, 
            "resource": {
                "assertedDate": "2000", 
                "clinicalStatus": "active", 
                "code": {
                    "coding": [
                        {
                            "code": "716186003", 
                            "display": "No known allergies", 
                            "system": "http://snomed.info/sct"
                        }
                    ], 
                    "text": "No known allergies"
                }, 
                "id": "ehealth-AllergyIntolerance-43", 
                "patient": {
                    "reference": "Patient/ehealth-1869612"
                }, 
                "resourceType": "AllergyIntolerance", 
                "text": {
                    "div": "<div xmlns=\"http://www.w3.org/1999/xhtml\">No known allergies</div>", 
                    "status": "generated"
                }, 
                "verificationStatus": "confirmed"
            }
        }
    ], 
    "resourceType": "Bundle", 
    "type": "transaction"
}
