{
    "entry": [
        {
            "request": {
                "method": "PUT", 
                "url": "Patient/ehealth-2080416"
            }, 
            "resource": {
                "active": true, 
                "address": [
                    {
                        "city": "Tulsa", 
                        "country": "USA", 
                        "line": [
                            "53 Sunset Ave"
                        ], 
                        "postalCode": "74126", 
                        "state": "OK", 
                        "use": "home"
                    }
                ], 
                "birthDate": "2003-12-14", 
                "gender": "male", 
                "generalPractitioner": [
                    {
                        "reference": "Practitioner/ehealth-Practitioner-72080416"
                    }
                ], 
                "id": "ehealth-2080416", 
                "identifier": [
                    {
                        "system": "http://hospital.smarthealthit.org", 
                        "type": {
                            "coding": [
                                {
                                    "code": "MR", 
                                    "display": "Medical Record Number", 
                                    "system": "http://hl7.org/fhir/v2/0203"
                                }
                            ], 
                            "text": "Medical Record Number"
                        }, 
                        "use": "official", 
                        "value": "ehealth-2080416"
                    }
                ], 
                "name": [
                    {
                        "family": "Shaw", 
                        "given": [
                            "Joseph", 
                            "P"
                        ], 
                        "use": "official"
                    }
                ], 
                "resourceType": "Patient", 
                "telecom": [
                    {
                        "system": "phone", 
                        "use": "mobile", 
                        "value": "800-277-1993"
                    }, 
                    {
                        "system": "email", 
                        "value": "joseph.shaw@example.com"
                    }
                ], 
                "text": {
                    "div": "<div xmlns=\"http://www.w3.org/1999/xhtml\">Joseph Shaw</div>", 
                    "status": "generated"
                }
            }
        }, 
        {
            "request": {
                "method": "PUT", 
                "url": "Observation/ehealth-2080416-gestage"
            }, 
            "resource": {
                "category": [
                    {
                        "coding": [
                            {
                                "code": "exam", 
                                "display": "Exam", 
                                "system": "http://hl7.org/fhir/observation-category"
                            }
                        ], 
                        "text": "Exam"
                    }
                ], 
                "code": {
                    "coding": [
                        {
                            "code": "18185-9", 
                            "display": "Gestational age at birth", 
                            "system": "http://loinc.org"
                        }
                    ], 
                    "text": "Gestational age at birth"
                }, 
                "effectiveDateTime": "2003-12-14", 
                "id": "ehealth-2080416-gestage", 
                "identifier": [
                    {
                        "system": "http://www.bmc.nl/zorgportal/identifiers/observations", 
                        "use": "official", 
                        "value": "ehealth-2080416-gestage"
                    }
                ], 
                "performer": [
                    {
                        "reference": "Practitioner/ehealth-Practitioner-72080416"
                    }
                ], 
                "resourceType": "Observation", 
                "status": "unknown", 
                "subject": {
                    "reference": "Patient/ehealth-2080416"
                }, 
                "text": {
                    "div": "<div xmlns=\"http://www.w3.org/1999/xhtml\">2003-12-14: Gestational age at birth = 36.7 weeks</div>", 
                    "status": "generated"
                }, 
                "valueQuantity": {
                    "code": "wk", 
                    "system": "http://unitsofmeasure.org", 
                    "unit": "weeks", 
                    "value": 36.7
                }
            }
        }, 
        {
            "request": {
                "method": "PUT", 
                "url": "MedicationRequest/ehealth-MedicationRequest-219"
            }, 
            "resource": {
                "dispenseRequest": {
                    "expectedSupplyDuration": {
                        "code": "d", 
                        "system": "http://unitsofmeasure.org", 
                        "unit": "days", 
                        "value": 5
                    }, 
                    "numberOfRepeatsAllowed": 1, 
                    "quantity": {
                        "code": "[in_us]", 
                        "system": "http://unitsofmeasure.org", 
                        "unit": "[in_us]", 
                        "value": 3.0
                    }
                }, 
                "dosageInstruction": [
                    {
                        "text": "1/4 inch in eye bid x5 days", 
                        "timing": {
                            "repeat": {
                                "boundsPeriod": {
                                    "start": "2004-05-09"
                                }, 
                                "frequency": 2, 
                                "period": 1, 
                                "periodUnit": "d"
                            }
                        }
                    }
                ], 
                "id": "ehealth-MedicationRequest-219", 
                "intent": "order", 
                "medicationCodeableConcept": {
                    "coding": [
                        {
                            "code": "310149", 
                            "display": "Erythromycin 0.005 MG/MG Ophthalmic Ointment", 
                            "system": "http://www.nlm.nih.gov/research/umls/rxnorm"
                        }
                    ], 
                    "text": "Erythromycin 0.005 MG/MG Ophthalmic Ointment"
                }, 
                "resourceType": "MedicationRequest", 
                "status": "active", 
                "subject": {
                    "reference": "Patient/ehealth-2080416"
                }, 
                "text": {
                    "div": "<div xmlns=\"http://www.w3.org/1999/xhtml\">Erythromycin 0.005 MG/MG Ophthalmic Ointment (rxnorm: 310149)</div>", 
                    "status": "generated"
                }
            }
        }, 
        {
            "request": {
                "method": "PUT", 
                "url": "MedicationDispense/ehealth-MedicationDispense-89"
            }, 
            "resource": {
                "authorizingPrescription": [
                    {
                        "reference": "MedicationRequest/ehealth-MedicationRequest-219"
                    }
                ], 
                "daysSupply": {
                    "code": "d", 
                    "system": "http://unitsofmeasure.org", 
                    "unit": "days", 
                    "value": 5
                }, 
                "id": "ehealth-MedicationDispense-89", 
                "medicationCodeableConcept": {
                    "coding": [
                        {
                            "code": "310149", 
                            "display": "Erythromycin 0.005 MG/MG Ophthalmic Ointment", 
                            "system": "http://www.nlm.nih.gov/research/umls/rxnorm"
                        }
                    ], 
                    "text": "Erythromycin 0.005 MG/MG Ophthalmic Ointment"
                }, 
                "quantity": {
                    "code": "{tablets}", 
                    "system": "http://unitsofmeasure.org", 
                    "unit": "tablets", 
                    "value": 3.0
                }, 
                "resourceType": "MedicationDispense", 
                "status": "completed", 
                "subject": {
                    "reference": "Patient/ehealth-2080416"
                }, 
                "text": {
                    "div": "<div xmlns=\"http://www.w3.org/1999/xhtml\">Dispensed 3 tablets = 5 day supply of Erythromycin 0.005 MG/MG Ophthalmic Ointment</div>", 
                    "status": "generated"
                }, 
                "whenHandedOver": "2004-05-09"
            }
        }, 
        {
            "request": {
                "method": "PUT", 
                "url": "MedicationRequest/ehealth-MedicationRequest-220"
            }, 
            "resource": {
                "dispenseRequest": {
                    "expectedSupplyDuration": {
                        "code": "d", 
                        "system": "http://unitsofmeasure.org", 
                        "unit": "days", 
                        "value": 10
                    }, 
                    "numberOfRepeatsAllowed": 1, 
                    "quantity": {
                        "code": "mL", 
                        "system": "http://unitsofmeasure.org", 
                        "unit": "mL", 
                        "value": 1.0
                    }
                }, 
                "dosageInstruction": [
                    {
                        "doseQuantity": {
                            "code": "mL", 
                            "system": "http://unitsofmeasure.org", 
                            "unit": "mL", 
                            "value": 10.0
                        }, 
                        "text": "10 mL bid x 10 days", 
                        "timing": {
                            "repeat": {
                                "boundsPeriod": {
                                    "start": "2004-11-06"
                                }, 
                                "frequency": 2, 
                                "period": 1, 
                                "periodUnit": "d"
                            }
                        }
                    }
                ], 
                "id": "ehealth-MedicationRequest-220", 
                "intent": "order", 
                "medicationCodeableConcept": {
                    "coding": [
                        {
                            "code": "239191", 
                            "display": "Amoxicillin 50 MG/ML Oral Suspension", 
                            "system": "http://www.nlm.nih.gov/research/umls/rxnorm"
                        }
                    ], 
                    "text": "Amoxicillin 50 MG/ML Oral Suspension"
                }, 
                "resourceType": "MedicationRequest", 
                "status": "active", 
                "subject": {
                    "reference": "Patient/ehealth-2080416"
                }, 
                "text": {
                    "div": "<div xmlns=\"http://www.w3.org/1999/xhtml\">Amoxicillin 50 MG/ML Oral Suspension (rxnorm: 239191)</div>", 
                    "status": "generated"
                }
            }
        }, 
        {
            "request": {
                "method": "PUT", 
                "url": "MedicationDispense/ehealth-MedicationDispense-92"
            }, 
            "resource": {
                "authorizingPrescription": [
                    {
                        "reference": "MedicationRequest/ehealth-MedicationRequest-220"
                    }
                ], 
                "daysSupply": {
                    "code": "d", 
                    "system": "http://unitsofmeasure.org", 
                    "unit": "days", 
                    "value": 10
                }, 
                "id": "ehealth-MedicationDispense-92", 
                "medicationCodeableConcept": {
                    "coding": [
                        {
                            "code": "239191", 
                            "display": "Amoxicillin 50 MG/ML Oral Suspension", 
                            "system": "http://www.nlm.nih.gov/research/umls/rxnorm"
                        }
                    ], 
                    "text": "Amoxicillin 50 MG/ML Oral Suspension"
                }, 
                "quantity": {
                    "code": "{tablets}", 
                    "system": "http://unitsofmeasure.org", 
                    "unit": "tablets", 
                    "value": 150.0
                }, 
                "resourceType": "MedicationDispense", 
                "status": "completed", 
                "subject": {
                    "reference": "Patient/ehealth-2080416"
                }, 
                "text": {
                    "div": "<div xmlns=\"http://www.w3.org/1999/xhtml\">Dispensed 150 tablets = 10 day supply of Amoxicillin 50 MG/ML Oral Suspension</div>", 
                    "status": "generated"
                }, 
                "whenHandedOver": "2004-11-06"
            }
        }, 
        {
            "request": {
                "method": "PUT", 
                "url": "MedicationRequest/ehealth-MedicationRequest-221"
            }, 
            "resource": {
                "dispenseRequest": {
                    "expectedSupplyDuration": {
                        "code": "d", 
                        "system": "http://unitsofmeasure.org", 
                        "unit": "days", 
                        "value": 4
                    }, 
                    "numberOfRepeatsAllowed": 1, 
                    "quantity": {
                        "code": "{dose}", 
                        "system": "http://unitsofmeasure.org", 
                        "unit": "{dose}", 
                        "value": 75.0
                    }
                }, 
                "dosageInstruction": [
                    {
                        "asNeededBoolean": true, 
                        "doseQuantity": {
                            "code": "{dose}", 
                            "system": "http://unitsofmeasure.org", 
                            "unit": "{dose}", 
                            "value": 1.0
                        }, 
                        "text": "1 nev q4h prn", 
                        "timing": {
                            "repeat": {
                                "boundsPeriod": {
                                    "start": "2008-08-19"
                                }, 
                                "frequency": 6, 
                                "period": 1, 
                                "periodUnit": "d"
                            }
                        }
                    }
                ], 
                "id": "ehealth-MedicationRequest-221", 
                "intent": "order", 
                "medicationCodeableConcept": {
                    "coding": [
                        {
                            "code": "630208", 
                            "display": "Albuterol 0.83 MG/ML Inhalant Solution", 
                            "system": "http://www.nlm.nih.gov/research/umls/rxnorm"
                        }
                    ], 
                    "text": "Albuterol 0.83 MG/ML Inhalant Solution"
                }, 
                "resourceType": "MedicationRequest", 
                "status": "active", 
                "subject": {
                    "reference": "Patient/ehealth-2080416"
                }, 
                "text": {
                    "div": "<div xmlns=\"http://www.w3.org/1999/xhtml\">Albuterol 0.83 MG/ML Inhalant Solution (rxnorm: 630208)</div>", 
                    "status": "generated"
                }
            }
        }, 
        {
            "request": {
                "method": "PUT", 
                "url": "MedicationDispense/ehealth-MedicationDispense-91"
            }, 
            "resource": {
                "authorizingPrescription": [
                    {
                        "reference": "MedicationRequest/ehealth-MedicationRequest-221"
                    }
                ], 
                "daysSupply": {
                    "code": "d", 
                    "system": "http://unitsofmeasure.org", 
                    "unit": "days", 
                    "value": 4
                }, 
                "id": "ehealth-MedicationDispense-91", 
                "medicationCodeableConcept": {
                    "coding": [
                        {
                            "code": "630208", 
                            "display": "Albuterol 0.83 MG/ML Inhalant Solution", 
                            "system": "http://www.nlm.nih.gov/research/umls/rxnorm"
                        }
                    ], 
                    "text": "Albuterol 0.83 MG/ML Inhalant Solution"
                }, 
                "quantity": {
                    "code": "{tablets}", 
                    "system": "http://unitsofmeasure.org", 
                    "unit": "tablets", 
                    "value": 75.0
                }, 
                "resourceType": "MedicationDispense", 
                "status": "completed", 
                "subject": {
                    "reference": "Patient/ehealth-2080416"
                }, 
                "text": {
                    "div": "<div xmlns=\"http://www.w3.org/1999/xhtml\">Dispensed 75 tablets = 4 day supply of Albuterol 0.83 MG/ML Inhalant Solution</div>", 
                    "status": "generated"
                }, 
                "whenHandedOver": "2009-05-19"
            }
        }, 
        {
            "request": {
                "method": "PUT", 
                "url": "MedicationDispense/ehealth-MedicationDispense-90"
            }, 
            "resource": {
                "authorizingPrescription": [
                    {
                        "reference": "MedicationRequest/ehealth-MedicationRequest-221"
                    }
                ], 
                "daysSupply": {
                    "code": "d", 
                    "system": "http://unitsofmeasure.org", 
                    "unit": "days", 
                    "value": 4
                }, 
                "id": "ehealth-MedicationDispense-90", 
                "medicationCodeableConcept": {
                    "coding": [
                        {
                            "code": "630208", 
                            "display": "Albuterol 0.83 MG/ML Inhalant Solution", 
                            "system": "http://www.nlm.nih.gov/research/umls/rxnorm"
                        }
                    ], 
                    "text": "Albuterol 0.83 MG/ML Inhalant Solution"
                }, 
                "quantity": {
                    "code": "{tablets}", 
                    "system": "http://unitsofmeasure.org", 
                    "unit": "tablets", 
                    "value": 75.0
                }, 
                "resourceType": "MedicationDispense", 
                "status": "completed", 
                "subject": {
                    "reference": "Patient/ehealth-2080416"
                }, 
                "text": {
                    "div": "<div xmlns=\"http://www.w3.org/1999/xhtml\">Dispensed 75 tablets = 4 day supply of Albuterol 0.83 MG/ML Inhalant Solution</div>", 
                    "status": "generated"
                }, 
                "whenHandedOver": "2008-08-19"
            }
        }, 
        {
            "request": {
                "method": "PUT", 
                "url": "Condition/ehealth-Condition-57"
            }, 
            "resource": {
                "clinicalStatus": "active", 
                "code": {
                    "coding": [
                        {
                            "code": "422400008", 
                            "display": "Vomiting", 
                            "system": "http://snomed.info/sct"
                        }
                    ], 
                    "text": "Vomiting"
                }, 
                "id": "ehealth-Condition-57", 
                "onsetDateTime": "2004-03-23", 
                "resourceType": "Condition", 
                "subject": {
                    "reference": "Patient/ehealth-2080416"
                }, 
                "text": {
                    "div": "<div xmlns=\"http://www.w3.org/1999/xhtml\">Vomiting</div>", 
                    "status": "generated"
                }, 
                "verificationStatus": "confirmed"
            }
        }, 
        {
            "request": {
                "method": "PUT", 
                "url": "Condition/ehealth-Condition-58"
            }, 
            "resource": {
                "clinicalStatus": "active", 
                "code": {
                    "coding": [
                        {
                            "code": "78164000", 
                            "display": "Feeding difficulties and mismanagement", 
                            "system": "http://snomed.info/sct"
                        }
                    ], 
                    "text": "Feeding difficulties and mismanagement"
                }, 
                "id": "ehealth-Condition-58", 
                "onsetDateTime": "2004-03-26", 
                "resourceType": "Condition", 
                "subject": {
                    "reference": "Patient/ehealth-2080416"
                }, 
                "text": {
                    "div": "<div xmlns=\"http://www.w3.org/1999/xhtml\">Feeding difficulties and mismanagement</div>", 
                    "status": "generated"
                }, 
                "verificationStatus": "confirmed"
            }
        }, 
        {
            "request": {
                "method": "PUT", 
                "url": "Condition/ehealth-Condition-59"
            }, 
            "resource": {
                "clinicalStatus": "active", 
                "code": {
                    "coding": [
                        {
                            "code": "72552008", 
                            "display": "Feeding problems in newborn", 
                            "system": "http://snomed.info/sct"
                        }
                    ], 
                    "text": "Feeding problems in newborn"
                }, 
                "id": "ehealth-Condition-59", 
                "onsetDateTime": "2004-04-01", 
                "resourceType": "Condition", 
                "subject": {
                    "reference": "Patient/ehealth-2080416"
                }, 
                "text": {
                    "div": "<div xmlns=\"http://www.w3.org/1999/xhtml\">Feeding problems in newborn</div>", 
                    "status": "generated"
                }, 
                "verificationStatus": "confirmed"
            }
        }, 
        {
            "request": {
                "method": "PUT", 
                "url": "Condition/ehealth-Condition-60"
            }, 
            "resource": {
                "clinicalStatus": "active", 
                "code": {
                    "coding": [
                        {
                            "code": "49727002", 
                            "display": "Cough", 
                            "system": "http://snomed.info/sct"
                        }
                    ], 
                    "text": "Cough"
                }, 
                "id": "ehealth-Condition-60", 
                "onsetDateTime": "2004-05-10", 
                "resourceType": "Condition", 
                "subject": {
                    "reference": "Patient/ehealth-2080416"
                }, 
                "text": {
                    "div": "<div xmlns=\"http://www.w3.org/1999/xhtml\">Cough</div>", 
                    "status": "generated"
                }, 
                "verificationStatus": "confirmed"
            }
        }, 
        {
            "request": {
                "method": "PUT", 
                "url": "Condition/ehealth-Condition-61"
            }, 
            "resource": {
                "clinicalStatus": "active", 
                "code": {
                    "coding": [
                        {
                            "code": "274667000", 
                            "display": "Finding of head and neck region", 
                            "system": "http://snomed.info/sct"
                        }
                    ], 
                    "text": "Finding of head and neck region"
                }, 
                "id": "ehealth-Condition-61", 
                "onsetDateTime": "2004-05-10", 
                "resourceType": "Condition", 
                "subject": {
                    "reference": "Patient/ehealth-2080416"
                }, 
                "text": {
                    "div": "<div xmlns=\"http://www.w3.org/1999/xhtml\">Finding of head and neck region</div>", 
                    "status": "generated"
                }, 
                "verificationStatus": "confirmed"
            }
        }, 
        {
            "request": {
                "method": "PUT", 
                "url": "Condition/ehealth-Condition-62"
            }, 
            "resource": {
                "clinicalStatus": "active", 
                "code": {
                    "coding": [
                        {
                            "code": "1023001", 
                            "display": "Apnea", 
                            "system": "http://snomed.info/sct"
                        }
                    ], 
                    "text": "Apnea"
                }, 
                "id": "ehealth-Condition-62", 
                "onsetDateTime": "2004-09-02", 
                "resourceType": "Condition", 
                "subject": {
                    "reference": "Patient/ehealth-2080416"
                }, 
                "text": {
                    "div": "<div xmlns=\"http://www.w3.org/1999/xhtml\">Apnea</div>", 
                    "status": "generated"
                }, 
                "verificationStatus": "confirmed"
            }
        }, 
        {
            "request": {
                "method": "PUT", 
                "url": "Condition/ehealth-Condition-63"
            }, 
            "resource": {
                "clinicalStatus": "active", 
                "code": {
                    "coding": [
                        {
                            "code": "35183001", 
                            "display": "Acute secretory otitis media", 
                            "system": "http://snomed.info/sct"
                        }
                    ], 
                    "text": "Acute secretory otitis media"
                }, 
                "id": "ehealth-Condition-63", 
                "onsetDateTime": "2004-11-06", 
                "resourceType": "Condition", 
                "subject": {
                    "reference": "Patient/ehealth-2080416"
                }, 
                "text": {
                    "div": "<div xmlns=\"http://www.w3.org/1999/xhtml\">Acute secretory otitis media</div>", 
                    "status": "generated"
                }, 
                "verificationStatus": "confirmed"
            }
        }, 
        {
            "request": {
                "method": "PUT", 
                "url": "Condition/ehealth-Condition-64"
            }, 
            "resource": {
                "clinicalStatus": "active", 
                "code": {
                    "coding": [
                        {
                            "code": "386661006", 
                            "display": "Fever and other physiologic disturbances of temperature regulation", 
                            "system": "http://snomed.info/sct"
                        }
                    ], 
                    "text": "Fever and other physiologic disturbances of temperature regulation"
                }, 
                "id": "ehealth-Condition-64", 
                "onsetDateTime": "2005-03-06", 
                "resourceType": "Condition", 
                "subject": {
                    "reference": "Patient/ehealth-2080416"
                }, 
                "text": {
                    "div": "<div xmlns=\"http://www.w3.org/1999/xhtml\">Fever and other physiologic disturbances of temperature regulation</div>", 
                    "status": "generated"
                }, 
                "verificationStatus": "confirmed"
            }
        }, 
        {
            "request": {
                "method": "PUT", 
                "url": "Condition/ehealth-Condition-65"
            }, 
            "resource": {
                "clinicalStatus": "active", 
                "code": {
                    "coding": [
                        {
                            "code": "65363002", 
                            "display": "Otitis media", 
                            "system": "http://snomed.info/sct"
                        }
                    ], 
                    "text": "Otitis media"
                }, 
                "id": "ehealth-Condition-65", 
                "onsetDateTime": "2005-03-06", 
                "resourceType": "Condition", 
                "subject": {
                    "reference": "Patient/ehealth-2080416"
                }, 
                "text": {
                    "div": "<div xmlns=\"http://www.w3.org/1999/xhtml\">Otitis media</div>", 
                    "status": "generated"
                }, 
                "verificationStatus": "confirmed"
            }
        }, 
        {
            "request": {
                "method": "PUT", 
                "url": "Observation/ehealth-smokingstatus-4"
            }, 
            "resource": {
                "category": [
                    {
                        "coding": [
                            {
                                "code": "social-history", 
                                "display": "Social History", 
                                "system": "http://hl7.org/fhir/observation-category"
                            }
                        ], 
                        "text": "Social History"
                    }
                ], 
                "code": {
                    "coding": [
                        {
                            "code": "72166-2", 
                            "display": "Tobacco smoking status", 
                            "system": "http://loinc.org"
                        }
                    ], 
                    "text": "Tobacco smoking status"
                }, 
                "effectiveDateTime": "2016-11-13", 
                "id": "ehealth-smokingstatus-4", 
                "identifier": [
                    {
                        "system": "http://www.bmc.nl/zorgportal/identifiers/observations", 
                        "use": "official", 
                        "value": "ehealth-4"
                    }
                ], 
                "performer": [
                    {
                        "reference": "Practitioner/ehealth-Practitioner-72080416"
                    }
                ], 
                "resourceType": "Observation", 
                "status": "final", 
                "subject": {
                    "reference": "Patient/ehealth-2080416"
                }, 
                "text": {
                    "div": "<div xmlns=\"http://www.w3.org/1999/xhtml\">Tobacco smoking status: Former smoker</div>", 
                    "status": "generated"
                }, 
                "valueCodeableConcept": {
                    "coding": [
                        {
                            "code": "8517006", 
                            "display": "Former smoker", 
                            "system": "http://snomed.info/sct"
                        }
                    ], 
                    "text": "Former smoker"
                }
            }
        }, 
        {
            "request": {
                "method": "PUT", 
                "url": "AllergyIntolerance/ehealth-AllergyIntolerance-47"
            }, 
            "resource": {
                "assertedDate": "2000", 
                "clinicalStatus": "active", 
                "code": {
                    "coding": [
                        {
                            "code": "716186003", 
                            "display": "No known allergies", 
                            "system": "http://snomed.info/sct"
                        }
                    ], 
                    "text": "No known allergies"
                }, 
                "id": "ehealth-AllergyIntolerance-47", 
                "patient": {
                    "reference": "Patient/ehealth-2080416"
                }, 
                "resourceType": "AllergyIntolerance", 
                "text": {
                    "div": "<div xmlns=\"http://www.w3.org/1999/xhtml\">No known allergies</div>", 
                    "status": "generated"
                }, 
                "verificationStatus": "confirmed"
            }
        }
    ], 
    "resourceType": "Bundle", 
    "type": "transaction"
}
