{
    "entry": [
        {
            "request": {
                "method": "PUT", 
                "url": "Patient/ehealth-7777702"
            }, 
            "resource": {
                "active": true, 
                "birthDate": "2008-10-01", 
                "gender": "female", 
                "generalPractitioner": [
                    {
                        "reference": "Practitioner/ehealth-Practitioner-72080416"
                    }
                ], 
                "id": "ehealth-7777702", 
                "identifier": [
                    {
                        "system": "http://hospital.smarthealthit.org", 
                        "type": {
                            "coding": [
                                {
                                    "code": "MR", 
                                    "display": "Medical Record Number", 
                                    "system": "http://hl7.org/fhir/v2/0203"
                                }
                            ], 
                            "text": "Medical Record Number"
                        }, 
                        "use": "official", 
                        "value": "ehealth-7777702"
                    }
                ], 
                "name": [
                    {
                        "family": "Warren", 
                        "given": [
                            "Yolanda"
                        ], 
                        "use": "official"
                    }
                ], 
                "resourceType": "Patient", 
                "text": {
                    "div": "<div xmlns=\"http://www.w3.org/1999/xhtml\">Yolanda Warren</div>", 
                    "status": "generated"
                }
            }
        }, 
        {
            "request": {
                "method": "PUT", 
                "url": "Encounter/ehealth-984"
            }, 
            "resource": {
                "class": {
                    "code": "ambulatory"
                }, 
                "id": "ehealth-984", 
                "period": {
                    "end": "2010-10-04", 
                    "start": "2010-10-04"
                }, 
                "resourceType": "Encounter", 
                "status": "finished", 
                "subject": {
                    "reference": "Patient/ehealth-7777702"
                }, 
                "text": {
                    "div": "<div xmlns=\"http://www.w3.org/1999/xhtml\">2010-10-04: ambulatory encounter</div>", 
                    "status": "generated"
                }, 
                "type": [
                    {
                        "coding": [
                            {
                                "code": "270427003", 
                                "display": "Patient-initiated encounter", 
                                "system": "http://snomed.info"
                            }
                        ], 
                        "text": "Patient-initiated ambulatory encounter"
                    }
                ]
            }
        }, 
        {
            "request": {
                "method": "PUT", 
                "url": "Encounter/ehealth-985"
            }, 
            "resource": {
                "class": {
                    "code": "ambulatory"
                }, 
                "id": "ehealth-985", 
                "period": {
                    "end": "2010-11-10", 
                    "start": "2010-11-10"
                }, 
                "resourceType": "Encounter", 
                "status": "finished", 
                "subject": {
                    "reference": "Patient/ehealth-7777702"
                }, 
                "text": {
                    "div": "<div xmlns=\"http://www.w3.org/1999/xhtml\">2010-11-10: ambulatory encounter</div>", 
                    "status": "generated"
                }, 
                "type": [
                    {
                        "coding": [
                            {
                                "code": "270427003", 
                                "display": "Patient-initiated encounter", 
                                "system": "http://snomed.info"
                            }
                        ], 
                        "text": "Patient-initiated ambulatory encounter"
                    }
                ]
            }
        }, 
        {
            "request": {
                "method": "PUT", 
                "url": "Encounter/ehealth-986"
            }, 
            "resource": {
                "class": {
                    "code": "ambulatory"
                }, 
                "id": "ehealth-986", 
                "period": {
                    "end": "2011-04-05", 
                    "start": "2011-04-05"
                }, 
                "resourceType": "Encounter", 
                "status": "finished", 
                "subject": {
                    "reference": "Patient/ehealth-7777702"
                }, 
                "text": {
                    "div": "<div xmlns=\"http://www.w3.org/1999/xhtml\">2011-04-05: ambulatory encounter</div>", 
                    "status": "generated"
                }, 
                "type": [
                    {
                        "coding": [
                            {
                                "code": "270427003", 
                                "display": "Patient-initiated encounter", 
                                "system": "http://snomed.info"
                            }
                        ], 
                        "text": "Patient-initiated ambulatory encounter"
                    }
                ]
            }
        }, 
        {
            "request": {
                "method": "PUT", 
                "url": "Encounter/ehealth-987"
            }, 
            "resource": {
                "class": {
                    "code": "ambulatory"
                }, 
                "id": "ehealth-987", 
                "period": {
                    "end": "2011-05-11", 
                    "start": "2011-05-11"
                }, 
                "resourceType": "Encounter", 
                "status": "finished", 
                "subject": {
                    "reference": "Patient/ehealth-7777702"
                }, 
                "text": {
                    "div": "<div xmlns=\"http://www.w3.org/1999/xhtml\">2011-05-11: ambulatory encounter</div>", 
                    "status": "generated"
                }, 
                "type": [
                    {
                        "coding": [
                            {
                                "code": "270427003", 
                                "display": "Patient-initiated encounter", 
                                "system": "http://snomed.info"
                            }
                        ], 
                        "text": "Patient-initiated ambulatory encounter"
                    }
                ]
            }
        }, 
        {
            "request": {
                "method": "PUT", 
                "url": "Encounter/ehealth-988"
            }, 
            "resource": {
                "class": {
                    "code": "ambulatory"
                }, 
                "id": "ehealth-988", 
                "period": {
                    "end": "2011-06-17", 
                    "start": "2011-06-17"
                }, 
                "resourceType": "Encounter", 
                "status": "finished", 
                "subject": {
                    "reference": "Patient/ehealth-7777702"
                }, 
                "text": {
                    "div": "<div xmlns=\"http://www.w3.org/1999/xhtml\">2011-06-17: ambulatory encounter</div>", 
                    "status": "generated"
                }, 
                "type": [
                    {
                        "coding": [
                            {
                                "code": "270427003", 
                                "display": "Patient-initiated encounter", 
                                "system": "http://snomed.info"
                            }
                        ], 
                        "text": "Patient-initiated ambulatory encounter"
                    }
                ]
            }
        }, 
        {
            "request": {
                "method": "PUT", 
                "url": "Encounter/ehealth-989"
            }, 
            "resource": {
                "class": {
                    "code": "ambulatory"
                }, 
                "id": "ehealth-989", 
                "period": {
                    "end": "2011-07-23", 
                    "start": "2011-07-23"
                }, 
                "resourceType": "Encounter", 
                "status": "finished", 
                "subject": {
                    "reference": "Patient/ehealth-7777702"
                }, 
                "text": {
                    "div": "<div xmlns=\"http://www.w3.org/1999/xhtml\">2011-07-23: ambulatory encounter</div>", 
                    "status": "generated"
                }, 
                "type": [
                    {
                        "coding": [
                            {
                                "code": "270427003", 
                                "display": "Patient-initiated encounter", 
                                "system": "http://snomed.info"
                            }
                        ], 
                        "text": "Patient-initiated ambulatory encounter"
                    }
                ]
            }
        }, 
        {
            "request": {
                "method": "PUT", 
                "url": "Encounter/ehealth-990"
            }, 
            "resource": {
                "class": {
                    "code": "ambulatory"
                }, 
                "id": "ehealth-990", 
                "period": {
                    "end": "2011-08-29", 
                    "start": "2011-08-29"
                }, 
                "resourceType": "Encounter", 
                "status": "finished", 
                "subject": {
                    "reference": "Patient/ehealth-7777702"
                }, 
                "text": {
                    "div": "<div xmlns=\"http://www.w3.org/1999/xhtml\">2011-08-29: ambulatory encounter</div>", 
                    "status": "generated"
                }, 
                "type": [
                    {
                        "coding": [
                            {
                                "code": "270427003", 
                                "display": "Patient-initiated encounter", 
                                "system": "http://snomed.info"
                            }
                        ], 
                        "text": "Patient-initiated ambulatory encounter"
                    }
                ]
            }
        }, 
        {
            "request": {
                "method": "PUT", 
                "url": "Encounter/ehealth-991"
            }, 
            "resource": {
                "class": {
                    "code": "ambulatory"
                }, 
                "id": "ehealth-991", 
                "period": {
                    "end": "2011-10-04", 
                    "start": "2011-10-04"
                }, 
                "resourceType": "Encounter", 
                "status": "finished", 
                "subject": {
                    "reference": "Patient/ehealth-7777702"
                }, 
                "text": {
                    "div": "<div xmlns=\"http://www.w3.org/1999/xhtml\">2011-10-04: ambulatory encounter</div>", 
                    "status": "generated"
                }, 
                "type": [
                    {
                        "coding": [
                            {
                                "code": "270427003", 
                                "display": "Patient-initiated encounter", 
                                "system": "http://snomed.info"
                            }
                        ], 
                        "text": "Patient-initiated ambulatory encounter"
                    }
                ]
            }
        }, 
        {
            "request": {
                "method": "PUT", 
                "url": "Encounter/ehealth-992"
            }, 
            "resource": {
                "class": {
                    "code": "ambulatory"
                }, 
                "id": "ehealth-992", 
                "period": {
                    "end": "2011-11-10", 
                    "start": "2011-11-10"
                }, 
                "resourceType": "Encounter", 
                "status": "finished", 
                "subject": {
                    "reference": "Patient/ehealth-7777702"
                }, 
                "text": {
                    "div": "<div xmlns=\"http://www.w3.org/1999/xhtml\">2011-11-10: ambulatory encounter</div>", 
                    "status": "generated"
                }, 
                "type": [
                    {
                        "coding": [
                            {
                                "code": "270427003", 
                                "display": "Patient-initiated encounter", 
                                "system": "http://snomed.info"
                            }
                        ], 
                        "text": "Patient-initiated ambulatory encounter"
                    }
                ]
            }
        }, 
        {
            "request": {
                "method": "PUT", 
                "url": "Encounter/ehealth-993"
            }, 
            "resource": {
                "class": {
                    "code": "ambulatory"
                }, 
                "id": "ehealth-993", 
                "period": {
                    "end": "2011-12-16", 
                    "start": "2011-12-16"
                }, 
                "resourceType": "Encounter", 
                "status": "finished", 
                "subject": {
                    "reference": "Patient/ehealth-7777702"
                }, 
                "text": {
                    "div": "<div xmlns=\"http://www.w3.org/1999/xhtml\">2011-12-16: ambulatory encounter</div>", 
                    "status": "generated"
                }, 
                "type": [
                    {
                        "coding": [
                            {
                                "code": "270427003", 
                                "display": "Patient-initiated encounter", 
                                "system": "http://snomed.info"
                            }
                        ], 
                        "text": "Patient-initiated ambulatory encounter"
                    }
                ]
            }
        }, 
        {
            "request": {
                "method": "PUT", 
                "url": "Encounter/ehealth-994"
            }, 
            "resource": {
                "class": {
                    "code": "ambulatory"
                }, 
                "id": "ehealth-994", 
                "period": {
                    "end": "2012-05-10", 
                    "start": "2012-05-10"
                }, 
                "resourceType": "Encounter", 
                "status": "finished", 
                "subject": {
                    "reference": "Patient/ehealth-7777702"
                }, 
                "text": {
                    "div": "<div xmlns=\"http://www.w3.org/1999/xhtml\">2012-05-10: ambulatory encounter</div>", 
                    "status": "generated"
                }, 
                "type": [
                    {
                        "coding": [
                            {
                                "code": "270427003", 
                                "display": "Patient-initiated encounter", 
                                "system": "http://snomed.info"
                            }
                        ], 
                        "text": "Patient-initiated ambulatory encounter"
                    }
                ]
            }
        }, 
        {
            "request": {
                "method": "PUT", 
                "url": "Encounter/ehealth-995"
            }, 
            "resource": {
                "class": {
                    "code": "ambulatory"
                }, 
                "id": "ehealth-995", 
                "period": {
                    "end": "2012-10-03", 
                    "start": "2012-10-03"
                }, 
                "resourceType": "Encounter", 
                "status": "finished", 
                "subject": {
                    "reference": "Patient/ehealth-7777702"
                }, 
                "text": {
                    "div": "<div xmlns=\"http://www.w3.org/1999/xhtml\">2012-10-03: ambulatory encounter</div>", 
                    "status": "generated"
                }, 
                "type": [
                    {
                        "coding": [
                            {
                                "code": "270427003", 
                                "display": "Patient-initiated encounter", 
                                "system": "http://snomed.info"
                            }
                        ], 
                        "text": "Patient-initiated ambulatory encounter"
                    }
                ]
            }
        }, 
        {
            "request": {
                "method": "PUT", 
                "url": "Encounter/ehealth-996"
            }, 
            "resource": {
                "class": {
                    "code": "ambulatory"
                }, 
                "id": "ehealth-996", 
                "period": {
                    "end": "2013-02-26", 
                    "start": "2013-02-26"
                }, 
                "resourceType": "Encounter", 
                "status": "finished", 
                "subject": {
                    "reference": "Patient/ehealth-7777702"
                }, 
                "text": {
                    "div": "<div xmlns=\"http://www.w3.org/1999/xhtml\">2013-02-26: ambulatory encounter</div>", 
                    "status": "generated"
                }, 
                "type": [
                    {
                        "coding": [
                            {
                                "code": "270427003", 
                                "display": "Patient-initiated encounter", 
                                "system": "http://snomed.info"
                            }
                        ], 
                        "text": "Patient-initiated ambulatory encounter"
                    }
                ]
            }
        }, 
        {
            "request": {
                "method": "PUT", 
                "url": "Observation/ehealth-1532-height"
            }, 
            "resource": {
                "category": [
                    {
                        "coding": [
                            {
                                "code": "vital-signs", 
                                "display": "Vital Signs", 
                                "system": "http://hl7.org/fhir/observation-category"
                            }
                        ], 
                        "text": "Vital Signs"
                    }
                ], 
                "code": {
                    "coding": [
                        {
                            "code": "8302-2", 
                            "display": "height", 
                            "system": "http://loinc.org"
                        }
                    ], 
                    "text": "height"
                }, 
                "context": {
                    "reference": "Encounter/ehealth-984"
                }, 
                "effectiveDateTime": "2010-10-04", 
                "id": "ehealth-1532-height", 
                "identifier": [
                    {
                        "system": "http://www.bmc.nl/zorgportal/identifiers/observations", 
                        "use": "official", 
                        "value": "ehealth-1532-height"
                    }
                ], 
                "performer": [
                    {
                        "reference": "Practitioner/ehealth-Practitioner-72080416"
                    }
                ], 
                "resourceType": "Observation", 
                "status": "unknown", 
                "subject": {
                    "reference": "Patient/ehealth-7777702"
                }, 
                "text": {
                    "div": "<div xmlns=\"http://www.w3.org/1999/xhtml\">2010-10-04: height = 78.5 cm</div>", 
                    "status": "generated"
                }, 
                "valueQuantity": {
                    "code": "cm", 
                    "system": "http://unitsofmeasure.org", 
                    "unit": "cm", 
                    "value": 78.5
                }
            }
        }, 
        {
            "request": {
                "method": "PUT", 
                "url": "Observation/ehealth-1533-weight"
            }, 
            "resource": {
                "category": [
                    {
                        "coding": [
                            {
                                "code": "vital-signs", 
                                "display": "Vital Signs", 
                                "system": "http://hl7.org/fhir/observation-category"
                            }
                        ], 
                        "text": "Vital Signs"
                    }
                ], 
                "code": {
                    "coding": [
                        {
                            "code": "3141-9", 
                            "display": "weight", 
                            "system": "http://loinc.org"
                        }
                    ], 
                    "text": "weight"
                }, 
                "context": {
                    "reference": "Encounter/ehealth-984"
                }, 
                "effectiveDateTime": "2010-10-04", 
                "id": "ehealth-1533-weight", 
                "identifier": [
                    {
                        "system": "http://www.bmc.nl/zorgportal/identifiers/observations", 
                        "use": "official", 
                        "value": "ehealth-1533-weight"
                    }
                ], 
                "performer": [
                    {
                        "reference": "Practitioner/ehealth-Practitioner-72080416"
                    }
                ], 
                "resourceType": "Observation", 
                "status": "unknown", 
                "subject": {
                    "reference": "Patient/ehealth-7777702"
                }, 
                "text": {
                    "div": "<div xmlns=\"http://www.w3.org/1999/xhtml\">2010-10-04: weight = 9.8 kg</div>", 
                    "status": "generated"
                }, 
                "valueQuantity": {
                    "code": "kg", 
                    "system": "http://unitsofmeasure.org", 
                    "unit": "kg", 
                    "value": 9.8
                }
            }
        }, 
        {
            "request": {
                "method": "PUT", 
                "url": "Observation/ehealth-1534-height"
            }, 
            "resource": {
                "category": [
                    {
                        "coding": [
                            {
                                "code": "vital-signs", 
                                "display": "Vital Signs", 
                                "system": "http://hl7.org/fhir/observation-category"
                            }
                        ], 
                        "text": "Vital Signs"
                    }
                ], 
                "code": {
                    "coding": [
                        {
                            "code": "8302-2", 
                            "display": "height", 
                            "system": "http://loinc.org"
                        }
                    ], 
                    "text": "height"
                }, 
                "context": {
                    "reference": "Encounter/ehealth-985"
                }, 
                "effectiveDateTime": "2010-11-10", 
                "id": "ehealth-1534-height", 
                "identifier": [
                    {
                        "system": "http://www.bmc.nl/zorgportal/identifiers/observations", 
                        "use": "official", 
                        "value": "ehealth-1534-height"
                    }
                ], 
                "performer": [
                    {
                        "reference": "Practitioner/ehealth-Practitioner-72080416"
                    }
                ], 
                "resourceType": "Observation", 
                "status": "unknown", 
                "subject": {
                    "reference": "Patient/ehealth-7777702"
                }, 
                "text": {
                    "div": "<div xmlns=\"http://www.w3.org/1999/xhtml\">2010-11-10: height = 78.5 cm</div>", 
                    "status": "generated"
                }, 
                "valueQuantity": {
                    "code": "cm", 
                    "system": "http://unitsofmeasure.org", 
                    "unit": "cm", 
                    "value": 78.5
                }
            }
        }, 
        {
            "request": {
                "method": "PUT", 
                "url": "Observation/ehealth-1535-weight"
            }, 
            "resource": {
                "category": [
                    {
                        "coding": [
                            {
                                "code": "vital-signs", 
                                "display": "Vital Signs", 
                                "system": "http://hl7.org/fhir/observation-category"
                            }
                        ], 
                        "text": "Vital Signs"
                    }
                ], 
                "code": {
                    "coding": [
                        {
                            "code": "3141-9", 
                            "display": "weight", 
                            "system": "http://loinc.org"
                        }
                    ], 
                    "text": "weight"
                }, 
                "context": {
                    "reference": "Encounter/ehealth-985"
                }, 
                "effectiveDateTime": "2010-11-10", 
                "id": "ehealth-1535-weight", 
                "identifier": [
                    {
                        "system": "http://www.bmc.nl/zorgportal/identifiers/observations", 
                        "use": "official", 
                        "value": "ehealth-1535-weight"
                    }
                ], 
                "performer": [
                    {
                        "reference": "Practitioner/ehealth-Practitioner-72080416"
                    }
                ], 
                "resourceType": "Observation", 
                "status": "unknown", 
                "subject": {
                    "reference": "Patient/ehealth-7777702"
                }, 
                "text": {
                    "div": "<div xmlns=\"http://www.w3.org/1999/xhtml\">2010-11-10: weight = 9.8 kg</div>", 
                    "status": "generated"
                }, 
                "valueQuantity": {
                    "code": "kg", 
                    "system": "http://unitsofmeasure.org", 
                    "unit": "kg", 
                    "value": 9.8
                }
            }
        }, 
        {
            "request": {
                "method": "PUT", 
                "url": "Observation/ehealth-1536-height"
            }, 
            "resource": {
                "category": [
                    {
                        "coding": [
                            {
                                "code": "vital-signs", 
                                "display": "Vital Signs", 
                                "system": "http://hl7.org/fhir/observation-category"
                            }
                        ], 
                        "text": "Vital Signs"
                    }
                ], 
                "code": {
                    "coding": [
                        {
                            "code": "8302-2", 
                            "display": "height", 
                            "system": "http://loinc.org"
                        }
                    ], 
                    "text": "height"
                }, 
                "context": {
                    "reference": "Encounter/ehealth-986"
                }, 
                "effectiveDateTime": "2011-04-05", 
                "id": "ehealth-1536-height", 
                "identifier": [
                    {
                        "system": "http://www.bmc.nl/zorgportal/identifiers/observations", 
                        "use": "official", 
                        "value": "ehealth-1536-height"
                    }
                ], 
                "performer": [
                    {
                        "reference": "Practitioner/ehealth-Practitioner-72080416"
                    }
                ], 
                "resourceType": "Observation", 
                "status": "unknown", 
                "subject": {
                    "reference": "Patient/ehealth-7777702"
                }, 
                "text": {
                    "div": "<div xmlns=\"http://www.w3.org/1999/xhtml\">2011-04-05: height = 82.3 cm</div>", 
                    "status": "generated"
                }, 
                "valueQuantity": {
                    "code": "cm", 
                    "system": "http://unitsofmeasure.org", 
                    "unit": "cm", 
                    "value": 82.3
                }
            }
        }, 
        {
            "request": {
                "method": "PUT", 
                "url": "Observation/ehealth-1537-weight"
            }, 
            "resource": {
                "category": [
                    {
                        "coding": [
                            {
                                "code": "vital-signs", 
                                "display": "Vital Signs", 
                                "system": "http://hl7.org/fhir/observation-category"
                            }
                        ], 
                        "text": "Vital Signs"
                    }
                ], 
                "code": {
                    "coding": [
                        {
                            "code": "3141-9", 
                            "display": "weight", 
                            "system": "http://loinc.org"
                        }
                    ], 
                    "text": "weight"
                }, 
                "context": {
                    "reference": "Encounter/ehealth-986"
                }, 
                "effectiveDateTime": "2011-04-05", 
                "id": "ehealth-1537-weight", 
                "identifier": [
                    {
                        "system": "http://www.bmc.nl/zorgportal/identifiers/observations", 
                        "use": "official", 
                        "value": "ehealth-1537-weight"
                    }
                ], 
                "performer": [
                    {
                        "reference": "Practitioner/ehealth-Practitioner-72080416"
                    }
                ], 
                "resourceType": "Observation", 
                "status": "unknown", 
                "subject": {
                    "reference": "Patient/ehealth-7777702"
                }, 
                "text": {
                    "div": "<div xmlns=\"http://www.w3.org/1999/xhtml\">2011-04-05: weight = 10.9 kg</div>", 
                    "status": "generated"
                }, 
                "valueQuantity": {
                    "code": "kg", 
                    "system": "http://unitsofmeasure.org", 
                    "unit": "kg", 
                    "value": 10.9
                }
            }
        }, 
        {
            "request": {
                "method": "PUT", 
                "url": "Observation/ehealth-1538-height"
            }, 
            "resource": {
                "category": [
                    {
                        "coding": [
                            {
                                "code": "vital-signs", 
                                "display": "Vital Signs", 
                                "system": "http://hl7.org/fhir/observation-category"
                            }
                        ], 
                        "text": "Vital Signs"
                    }
                ], 
                "code": {
                    "coding": [
                        {
                            "code": "8302-2", 
                            "display": "height", 
                            "system": "http://loinc.org"
                        }
                    ], 
                    "text": "height"
                }, 
                "context": {
                    "reference": "Encounter/ehealth-987"
                }, 
                "effectiveDateTime": "2011-05-11", 
                "id": "ehealth-1538-height", 
                "identifier": [
                    {
                        "system": "http://www.bmc.nl/zorgportal/identifiers/observations", 
                        "use": "official", 
                        "value": "ehealth-1538-height"
                    }
                ], 
                "performer": [
                    {
                        "reference": "Practitioner/ehealth-Practitioner-72080416"
                    }
                ], 
                "resourceType": "Observation", 
                "status": "unknown", 
                "subject": {
                    "reference": "Patient/ehealth-7777702"
                }, 
                "text": {
                    "div": "<div xmlns=\"http://www.w3.org/1999/xhtml\">2011-05-11: height = 82.3 cm</div>", 
                    "status": "generated"
                }, 
                "valueQuantity": {
                    "code": "cm", 
                    "system": "http://unitsofmeasure.org", 
                    "unit": "cm", 
                    "value": 82.3
                }
            }
        }, 
        {
            "request": {
                "method": "PUT", 
                "url": "Observation/ehealth-1539-weight"
            }, 
            "resource": {
                "category": [
                    {
                        "coding": [
                            {
                                "code": "vital-signs", 
                                "display": "Vital Signs", 
                                "system": "http://hl7.org/fhir/observation-category"
                            }
                        ], 
                        "text": "Vital Signs"
                    }
                ], 
                "code": {
                    "coding": [
                        {
                            "code": "3141-9", 
                            "display": "weight", 
                            "system": "http://loinc.org"
                        }
                    ], 
                    "text": "weight"
                }, 
                "context": {
                    "reference": "Encounter/ehealth-987"
                }, 
                "effectiveDateTime": "2011-05-11", 
                "id": "ehealth-1539-weight", 
                "identifier": [
                    {
                        "system": "http://www.bmc.nl/zorgportal/identifiers/observations", 
                        "use": "official", 
                        "value": "ehealth-1539-weight"
                    }
                ], 
                "performer": [
                    {
                        "reference": "Practitioner/ehealth-Practitioner-72080416"
                    }
                ], 
                "resourceType": "Observation", 
                "status": "unknown", 
                "subject": {
                    "reference": "Patient/ehealth-7777702"
                }, 
                "text": {
                    "div": "<div xmlns=\"http://www.w3.org/1999/xhtml\">2011-05-11: weight = 11.2 kg</div>", 
                    "status": "generated"
                }, 
                "valueQuantity": {
                    "code": "kg", 
                    "system": "http://unitsofmeasure.org", 
                    "unit": "kg", 
                    "value": 11.2
                }
            }
        }, 
        {
            "request": {
                "method": "PUT", 
                "url": "Observation/ehealth-1540-height"
            }, 
            "resource": {
                "category": [
                    {
                        "coding": [
                            {
                                "code": "vital-signs", 
                                "display": "Vital Signs", 
                                "system": "http://hl7.org/fhir/observation-category"
                            }
                        ], 
                        "text": "Vital Signs"
                    }
                ], 
                "code": {
                    "coding": [
                        {
                            "code": "8302-2", 
                            "display": "height", 
                            "system": "http://loinc.org"
                        }
                    ], 
                    "text": "height"
                }, 
                "context": {
                    "reference": "Encounter/ehealth-988"
                }, 
                "effectiveDateTime": "2011-06-17", 
                "id": "ehealth-1540-height", 
                "identifier": [
                    {
                        "system": "http://www.bmc.nl/zorgportal/identifiers/observations", 
                        "use": "official", 
                        "value": "ehealth-1540-height"
                    }
                ], 
                "performer": [
                    {
                        "reference": "Practitioner/ehealth-Practitioner-72080416"
                    }
                ], 
                "resourceType": "Observation", 
                "status": "unknown", 
                "subject": {
                    "reference": "Patient/ehealth-7777702"
                }, 
                "text": {
                    "div": "<div xmlns=\"http://www.w3.org/1999/xhtml\">2011-06-17: height = 84.0 cm</div>", 
                    "status": "generated"
                }, 
                "valueQuantity": {
                    "code": "cm", 
                    "system": "http://unitsofmeasure.org", 
                    "unit": "cm", 
                    "value": 84.0
                }
            }
        }, 
        {
            "request": {
                "method": "PUT", 
                "url": "Observation/ehealth-1541-weight"
            }, 
            "resource": {
                "category": [
                    {
                        "coding": [
                            {
                                "code": "vital-signs", 
                                "display": "Vital Signs", 
                                "system": "http://hl7.org/fhir/observation-category"
                            }
                        ], 
                        "text": "Vital Signs"
                    }
                ], 
                "code": {
                    "coding": [
                        {
                            "code": "3141-9", 
                            "display": "weight", 
                            "system": "http://loinc.org"
                        }
                    ], 
                    "text": "weight"
                }, 
                "context": {
                    "reference": "Encounter/ehealth-988"
                }, 
                "effectiveDateTime": "2011-06-17", 
                "id": "ehealth-1541-weight", 
                "identifier": [
                    {
                        "system": "http://www.bmc.nl/zorgportal/identifiers/observations", 
                        "use": "official", 
                        "value": "ehealth-1541-weight"
                    }
                ], 
                "performer": [
                    {
                        "reference": "Practitioner/ehealth-Practitioner-72080416"
                    }
                ], 
                "resourceType": "Observation", 
                "status": "unknown", 
                "subject": {
                    "reference": "Patient/ehealth-7777702"
                }, 
                "text": {
                    "div": "<div xmlns=\"http://www.w3.org/1999/xhtml\">2011-06-17: weight = 11.2 kg</div>", 
                    "status": "generated"
                }, 
                "valueQuantity": {
                    "code": "kg", 
                    "system": "http://unitsofmeasure.org", 
                    "unit": "kg", 
                    "value": 11.2
                }
            }
        }, 
        {
            "request": {
                "method": "PUT", 
                "url": "Observation/ehealth-1542-height"
            }, 
            "resource": {
                "category": [
                    {
                        "coding": [
                            {
                                "code": "vital-signs", 
                                "display": "Vital Signs", 
                                "system": "http://hl7.org/fhir/observation-category"
                            }
                        ], 
                        "text": "Vital Signs"
                    }
                ], 
                "code": {
                    "coding": [
                        {
                            "code": "8302-2", 
                            "display": "height", 
                            "system": "http://loinc.org"
                        }
                    ], 
                    "text": "height"
                }, 
                "context": {
                    "reference": "Encounter/ehealth-989"
                }, 
                "effectiveDateTime": "2011-07-23", 
                "id": "ehealth-1542-height", 
                "identifier": [
                    {
                        "system": "http://www.bmc.nl/zorgportal/identifiers/observations", 
                        "use": "official", 
                        "value": "ehealth-1542-height"
                    }
                ], 
                "performer": [
                    {
                        "reference": "Practitioner/ehealth-Practitioner-72080416"
                    }
                ], 
                "resourceType": "Observation", 
                "status": "unknown", 
                "subject": {
                    "reference": "Patient/ehealth-7777702"
                }, 
                "text": {
                    "div": "<div xmlns=\"http://www.w3.org/1999/xhtml\">2011-07-23: height = 83.5 cm</div>", 
                    "status": "generated"
                }, 
                "valueQuantity": {
                    "code": "cm", 
                    "system": "http://unitsofmeasure.org", 
                    "unit": "cm", 
                    "value": 83.5
                }
            }
        }, 
        {
            "request": {
                "method": "PUT", 
                "url": "Observation/ehealth-1543-weight"
            }, 
            "resource": {
                "category": [
                    {
                        "coding": [
                            {
                                "code": "vital-signs", 
                                "display": "Vital Signs", 
                                "system": "http://hl7.org/fhir/observation-category"
                            }
                        ], 
                        "text": "Vital Signs"
                    }
                ], 
                "code": {
                    "coding": [
                        {
                            "code": "3141-9", 
                            "display": "weight", 
                            "system": "http://loinc.org"
                        }
                    ], 
                    "text": "weight"
                }, 
                "context": {
                    "reference": "Encounter/ehealth-989"
                }, 
                "effectiveDateTime": "2011-07-23", 
                "id": "ehealth-1543-weight", 
                "identifier": [
                    {
                        "system": "http://www.bmc.nl/zorgportal/identifiers/observations", 
                        "use": "official", 
                        "value": "ehealth-1543-weight"
                    }
                ], 
                "performer": [
                    {
                        "reference": "Practitioner/ehealth-Practitioner-72080416"
                    }
                ], 
                "resourceType": "Observation", 
                "status": "unknown", 
                "subject": {
                    "reference": "Patient/ehealth-7777702"
                }, 
                "text": {
                    "div": "<div xmlns=\"http://www.w3.org/1999/xhtml\">2011-07-23: weight = 11.7 kg</div>", 
                    "status": "generated"
                }, 
                "valueQuantity": {
                    "code": "kg", 
                    "system": "http://unitsofmeasure.org", 
                    "unit": "kg", 
                    "value": 11.7
                }
            }
        }, 
        {
            "request": {
                "method": "PUT", 
                "url": "Observation/ehealth-1544-height"
            }, 
            "resource": {
                "category": [
                    {
                        "coding": [
                            {
                                "code": "vital-signs", 
                                "display": "Vital Signs", 
                                "system": "http://hl7.org/fhir/observation-category"
                            }
                        ], 
                        "text": "Vital Signs"
                    }
                ], 
                "code": {
                    "coding": [
                        {
                            "code": "8302-2", 
                            "display": "height", 
                            "system": "http://loinc.org"
                        }
                    ], 
                    "text": "height"
                }, 
                "context": {
                    "reference": "Encounter/ehealth-990"
                }, 
                "effectiveDateTime": "2011-08-29", 
                "id": "ehealth-1544-height", 
                "identifier": [
                    {
                        "system": "http://www.bmc.nl/zorgportal/identifiers/observations", 
                        "use": "official", 
                        "value": "ehealth-1544-height"
                    }
                ], 
                "performer": [
                    {
                        "reference": "Practitioner/ehealth-Practitioner-72080416"
                    }
                ], 
                "resourceType": "Observation", 
                "status": "unknown", 
                "subject": {
                    "reference": "Patient/ehealth-7777702"
                }, 
                "text": {
                    "div": "<div xmlns=\"http://www.w3.org/1999/xhtml\">2011-08-29: height = 85.5 cm</div>", 
                    "status": "generated"
                }, 
                "valueQuantity": {
                    "code": "cm", 
                    "system": "http://unitsofmeasure.org", 
                    "unit": "cm", 
                    "value": 85.5
                }
            }
        }, 
        {
            "request": {
                "method": "PUT", 
                "url": "Observation/ehealth-1545-weight"
            }, 
            "resource": {
                "category": [
                    {
                        "coding": [
                            {
                                "code": "vital-signs", 
                                "display": "Vital Signs", 
                                "system": "http://hl7.org/fhir/observation-category"
                            }
                        ], 
                        "text": "Vital Signs"
                    }
                ], 
                "code": {
                    "coding": [
                        {
                            "code": "3141-9", 
                            "display": "weight", 
                            "system": "http://loinc.org"
                        }
                    ], 
                    "text": "weight"
                }, 
                "context": {
                    "reference": "Encounter/ehealth-990"
                }, 
                "effectiveDateTime": "2011-08-29", 
                "id": "ehealth-1545-weight", 
                "identifier": [
                    {
                        "system": "http://www.bmc.nl/zorgportal/identifiers/observations", 
                        "use": "official", 
                        "value": "ehealth-1545-weight"
                    }
                ], 
                "performer": [
                    {
                        "reference": "Practitioner/ehealth-Practitioner-72080416"
                    }
                ], 
                "resourceType": "Observation", 
                "status": "unknown", 
                "subject": {
                    "reference": "Patient/ehealth-7777702"
                }, 
                "text": {
                    "div": "<div xmlns=\"http://www.w3.org/1999/xhtml\">2011-08-29: weight = 11.0 kg</div>", 
                    "status": "generated"
                }, 
                "valueQuantity": {
                    "code": "kg", 
                    "system": "http://unitsofmeasure.org", 
                    "unit": "kg", 
                    "value": 11.0
                }
            }
        }, 
        {
            "request": {
                "method": "PUT", 
                "url": "Observation/ehealth-1546-height"
            }, 
            "resource": {
                "category": [
                    {
                        "coding": [
                            {
                                "code": "vital-signs", 
                                "display": "Vital Signs", 
                                "system": "http://hl7.org/fhir/observation-category"
                            }
                        ], 
                        "text": "Vital Signs"
                    }
                ], 
                "code": {
                    "coding": [
                        {
                            "code": "8302-2", 
                            "display": "height", 
                            "system": "http://loinc.org"
                        }
                    ], 
                    "text": "height"
                }, 
                "context": {
                    "reference": "Encounter/ehealth-991"
                }, 
                "effectiveDateTime": "2011-10-04", 
                "id": "ehealth-1546-height", 
                "identifier": [
                    {
                        "system": "http://www.bmc.nl/zorgportal/identifiers/observations", 
                        "use": "official", 
                        "value": "ehealth-1546-height"
                    }
                ], 
                "performer": [
                    {
                        "reference": "Practitioner/ehealth-Practitioner-72080416"
                    }
                ], 
                "resourceType": "Observation", 
                "status": "unknown", 
                "subject": {
                    "reference": "Patient/ehealth-7777702"
                }, 
                "text": {
                    "div": "<div xmlns=\"http://www.w3.org/1999/xhtml\">2011-10-04: height = 86.3 cm</div>", 
                    "status": "generated"
                }, 
                "valueQuantity": {
                    "code": "cm", 
                    "system": "http://unitsofmeasure.org", 
                    "unit": "cm", 
                    "value": 86.3
                }
            }
        }, 
        {
            "request": {
                "method": "PUT", 
                "url": "Observation/ehealth-1547-weight"
            }, 
            "resource": {
                "category": [
                    {
                        "coding": [
                            {
                                "code": "vital-signs", 
                                "display": "Vital Signs", 
                                "system": "http://hl7.org/fhir/observation-category"
                            }
                        ], 
                        "text": "Vital Signs"
                    }
                ], 
                "code": {
                    "coding": [
                        {
                            "code": "3141-9", 
                            "display": "weight", 
                            "system": "http://loinc.org"
                        }
                    ], 
                    "text": "weight"
                }, 
                "context": {
                    "reference": "Encounter/ehealth-991"
                }, 
                "effectiveDateTime": "2011-10-04", 
                "id": "ehealth-1547-weight", 
                "identifier": [
                    {
                        "system": "http://www.bmc.nl/zorgportal/identifiers/observations", 
                        "use": "official", 
                        "value": "ehealth-1547-weight"
                    }
                ], 
                "performer": [
                    {
                        "reference": "Practitioner/ehealth-Practitioner-72080416"
                    }
                ], 
                "resourceType": "Observation", 
                "status": "unknown", 
                "subject": {
                    "reference": "Patient/ehealth-7777702"
                }, 
                "text": {
                    "div": "<div xmlns=\"http://www.w3.org/1999/xhtml\">2011-10-04: weight = 11.3 kg</div>", 
                    "status": "generated"
                }, 
                "valueQuantity": {
                    "code": "kg", 
                    "system": "http://unitsofmeasure.org", 
                    "unit": "kg", 
                    "value": 11.3
                }
            }
        }, 
        {
            "request": {
                "method": "PUT", 
                "url": "Observation/ehealth-1548-height"
            }, 
            "resource": {
                "category": [
                    {
                        "coding": [
                            {
                                "code": "vital-signs", 
                                "display": "Vital Signs", 
                                "system": "http://hl7.org/fhir/observation-category"
                            }
                        ], 
                        "text": "Vital Signs"
                    }
                ], 
                "code": {
                    "coding": [
                        {
                            "code": "8302-2", 
                            "display": "height", 
                            "system": "http://loinc.org"
                        }
                    ], 
                    "text": "height"
                }, 
                "context": {
                    "reference": "Encounter/ehealth-992"
                }, 
                "effectiveDateTime": "2011-11-10", 
                "id": "ehealth-1548-height", 
                "identifier": [
                    {
                        "system": "http://www.bmc.nl/zorgportal/identifiers/observations", 
                        "use": "official", 
                        "value": "ehealth-1548-height"
                    }
                ], 
                "performer": [
                    {
                        "reference": "Practitioner/ehealth-Practitioner-72080416"
                    }
                ], 
                "resourceType": "Observation", 
                "status": "unknown", 
                "subject": {
                    "reference": "Patient/ehealth-7777702"
                }, 
                "text": {
                    "div": "<div xmlns=\"http://www.w3.org/1999/xhtml\">2011-11-10: height = 86.3 cm</div>", 
                    "status": "generated"
                }, 
                "valueQuantity": {
                    "code": "cm", 
                    "system": "http://unitsofmeasure.org", 
                    "unit": "cm", 
                    "value": 86.3
                }
            }
        }, 
        {
            "request": {
                "method": "PUT", 
                "url": "Observation/ehealth-1549-weight"
            }, 
            "resource": {
                "category": [
                    {
                        "coding": [
                            {
                                "code": "vital-signs", 
                                "display": "Vital Signs", 
                                "system": "http://hl7.org/fhir/observation-category"
                            }
                        ], 
                        "text": "Vital Signs"
                    }
                ], 
                "code": {
                    "coding": [
                        {
                            "code": "3141-9", 
                            "display": "weight", 
                            "system": "http://loinc.org"
                        }
                    ], 
                    "text": "weight"
                }, 
                "context": {
                    "reference": "Encounter/ehealth-992"
                }, 
                "effectiveDateTime": "2011-11-10", 
                "id": "ehealth-1549-weight", 
                "identifier": [
                    {
                        "system": "http://www.bmc.nl/zorgportal/identifiers/observations", 
                        "use": "official", 
                        "value": "ehealth-1549-weight"
                    }
                ], 
                "performer": [
                    {
                        "reference": "Practitioner/ehealth-Practitioner-72080416"
                    }
                ], 
                "resourceType": "Observation", 
                "status": "unknown", 
                "subject": {
                    "reference": "Patient/ehealth-7777702"
                }, 
                "text": {
                    "div": "<div xmlns=\"http://www.w3.org/1999/xhtml\">2011-11-10: weight = 11.9 kg</div>", 
                    "status": "generated"
                }, 
                "valueQuantity": {
                    "code": "kg", 
                    "system": "http://unitsofmeasure.org", 
                    "unit": "kg", 
                    "value": 11.9
                }
            }
        }, 
        {
            "request": {
                "method": "PUT", 
                "url": "Observation/ehealth-1550-height"
            }, 
            "resource": {
                "category": [
                    {
                        "coding": [
                            {
                                "code": "vital-signs", 
                                "display": "Vital Signs", 
                                "system": "http://hl7.org/fhir/observation-category"
                            }
                        ], 
                        "text": "Vital Signs"
                    }
                ], 
                "code": {
                    "coding": [
                        {
                            "code": "8302-2", 
                            "display": "height", 
                            "system": "http://loinc.org"
                        }
                    ], 
                    "text": "height"
                }, 
                "context": {
                    "reference": "Encounter/ehealth-993"
                }, 
                "effectiveDateTime": "2011-12-16", 
                "id": "ehealth-1550-height", 
                "identifier": [
                    {
                        "system": "http://www.bmc.nl/zorgportal/identifiers/observations", 
                        "use": "official", 
                        "value": "ehealth-1550-height"
                    }
                ], 
                "performer": [
                    {
                        "reference": "Practitioner/ehealth-Practitioner-72080416"
                    }
                ], 
                "resourceType": "Observation", 
                "status": "unknown", 
                "subject": {
                    "reference": "Patient/ehealth-7777702"
                }, 
                "text": {
                    "div": "<div xmlns=\"http://www.w3.org/1999/xhtml\">2011-12-16: height = 86.7 cm</div>", 
                    "status": "generated"
                }, 
                "valueQuantity": {
                    "code": "cm", 
                    "system": "http://unitsofmeasure.org", 
                    "unit": "cm", 
                    "value": 86.7
                }
            }
        }, 
        {
            "request": {
                "method": "PUT", 
                "url": "Observation/ehealth-1551-weight"
            }, 
            "resource": {
                "category": [
                    {
                        "coding": [
                            {
                                "code": "vital-signs", 
                                "display": "Vital Signs", 
                                "system": "http://hl7.org/fhir/observation-category"
                            }
                        ], 
                        "text": "Vital Signs"
                    }
                ], 
                "code": {
                    "coding": [
                        {
                            "code": "3141-9", 
                            "display": "weight", 
                            "system": "http://loinc.org"
                        }
                    ], 
                    "text": "weight"
                }, 
                "context": {
                    "reference": "Encounter/ehealth-993"
                }, 
                "effectiveDateTime": "2011-12-16", 
                "id": "ehealth-1551-weight", 
                "identifier": [
                    {
                        "system": "http://www.bmc.nl/zorgportal/identifiers/observations", 
                        "use": "official", 
                        "value": "ehealth-1551-weight"
                    }
                ], 
                "performer": [
                    {
                        "reference": "Practitioner/ehealth-Practitioner-72080416"
                    }
                ], 
                "resourceType": "Observation", 
                "status": "unknown", 
                "subject": {
                    "reference": "Patient/ehealth-7777702"
                }, 
                "text": {
                    "div": "<div xmlns=\"http://www.w3.org/1999/xhtml\">2011-12-16: weight = 12.0 kg</div>", 
                    "status": "generated"
                }, 
                "valueQuantity": {
                    "code": "kg", 
                    "system": "http://unitsofmeasure.org", 
                    "unit": "kg", 
                    "value": 12.0
                }
            }
        }, 
        {
            "request": {
                "method": "PUT", 
                "url": "Observation/ehealth-1552-height"
            }, 
            "resource": {
                "category": [
                    {
                        "coding": [
                            {
                                "code": "vital-signs", 
                                "display": "Vital Signs", 
                                "system": "http://hl7.org/fhir/observation-category"
                            }
                        ], 
                        "text": "Vital Signs"
                    }
                ], 
                "code": {
                    "coding": [
                        {
                            "code": "8302-2", 
                            "display": "height", 
                            "system": "http://loinc.org"
                        }
                    ], 
                    "text": "height"
                }, 
                "context": {
                    "reference": "Encounter/ehealth-994"
                }, 
                "effectiveDateTime": "2012-05-10", 
                "id": "ehealth-1552-height", 
                "identifier": [
                    {
                        "system": "http://www.bmc.nl/zorgportal/identifiers/observations", 
                        "use": "official", 
                        "value": "ehealth-1552-height"
                    }
                ], 
                "performer": [
                    {
                        "reference": "Practitioner/ehealth-Practitioner-72080416"
                    }
                ], 
                "resourceType": "Observation", 
                "status": "unknown", 
                "subject": {
                    "reference": "Patient/ehealth-7777702"
                }, 
                "text": {
                    "div": "<div xmlns=\"http://www.w3.org/1999/xhtml\">2012-05-10: height = 90.9 cm</div>", 
                    "status": "generated"
                }, 
                "valueQuantity": {
                    "code": "cm", 
                    "system": "http://unitsofmeasure.org", 
                    "unit": "cm", 
                    "value": 90.9
                }
            }
        }, 
        {
            "request": {
                "method": "PUT", 
                "url": "Observation/ehealth-1553-weight"
            }, 
            "resource": {
                "category": [
                    {
                        "coding": [
                            {
                                "code": "vital-signs", 
                                "display": "Vital Signs", 
                                "system": "http://hl7.org/fhir/observation-category"
                            }
                        ], 
                        "text": "Vital Signs"
                    }
                ], 
                "code": {
                    "coding": [
                        {
                            "code": "3141-9", 
                            "display": "weight", 
                            "system": "http://loinc.org"
                        }
                    ], 
                    "text": "weight"
                }, 
                "context": {
                    "reference": "Encounter/ehealth-994"
                }, 
                "effectiveDateTime": "2012-05-10", 
                "id": "ehealth-1553-weight", 
                "identifier": [
                    {
                        "system": "http://www.bmc.nl/zorgportal/identifiers/observations", 
                        "use": "official", 
                        "value": "ehealth-1553-weight"
                    }
                ], 
                "performer": [
                    {
                        "reference": "Practitioner/ehealth-Practitioner-72080416"
                    }
                ], 
                "resourceType": "Observation", 
                "status": "unknown", 
                "subject": {
                    "reference": "Patient/ehealth-7777702"
                }, 
                "text": {
                    "div": "<div xmlns=\"http://www.w3.org/1999/xhtml\">2012-05-10: weight = 12.7 kg</div>", 
                    "status": "generated"
                }, 
                "valueQuantity": {
                    "code": "kg", 
                    "system": "http://unitsofmeasure.org", 
                    "unit": "kg", 
                    "value": 12.7
                }
            }
        }, 
        {
            "request": {
                "method": "PUT", 
                "url": "Observation/ehealth-1554-height"
            }, 
            "resource": {
                "category": [
                    {
                        "coding": [
                            {
                                "code": "vital-signs", 
                                "display": "Vital Signs", 
                                "system": "http://hl7.org/fhir/observation-category"
                            }
                        ], 
                        "text": "Vital Signs"
                    }
                ], 
                "code": {
                    "coding": [
                        {
                            "code": "8302-2", 
                            "display": "height", 
                            "system": "http://loinc.org"
                        }
                    ], 
                    "text": "height"
                }, 
                "context": {
                    "reference": "Encounter/ehealth-995"
                }, 
                "effectiveDateTime": "2012-10-03", 
                "id": "ehealth-1554-height", 
                "identifier": [
                    {
                        "system": "http://www.bmc.nl/zorgportal/identifiers/observations", 
                        "use": "official", 
                        "value": "ehealth-1554-height"
                    }
                ], 
                "performer": [
                    {
                        "reference": "Practitioner/ehealth-Practitioner-72080416"
                    }
                ], 
                "resourceType": "Observation", 
                "status": "unknown", 
                "subject": {
                    "reference": "Patient/ehealth-7777702"
                }, 
                "text": {
                    "div": "<div xmlns=\"http://www.w3.org/1999/xhtml\">2012-10-03: height = 95.4 cm</div>", 
                    "status": "generated"
                }, 
                "valueQuantity": {
                    "code": "cm", 
                    "system": "http://unitsofmeasure.org", 
                    "unit": "cm", 
                    "value": 95.4
                }
            }
        }, 
        {
            "request": {
                "method": "PUT", 
                "url": "Observation/ehealth-1555-weight"
            }, 
            "resource": {
                "category": [
                    {
                        "coding": [
                            {
                                "code": "vital-signs", 
                                "display": "Vital Signs", 
                                "system": "http://hl7.org/fhir/observation-category"
                            }
                        ], 
                        "text": "Vital Signs"
                    }
                ], 
                "code": {
                    "coding": [
                        {
                            "code": "3141-9", 
                            "display": "weight", 
                            "system": "http://loinc.org"
                        }
                    ], 
                    "text": "weight"
                }, 
                "context": {
                    "reference": "Encounter/ehealth-995"
                }, 
                "effectiveDateTime": "2012-10-03", 
                "id": "ehealth-1555-weight", 
                "identifier": [
                    {
                        "system": "http://www.bmc.nl/zorgportal/identifiers/observations", 
                        "use": "official", 
                        "value": "ehealth-1555-weight"
                    }
                ], 
                "performer": [
                    {
                        "reference": "Practitioner/ehealth-Practitioner-72080416"
                    }
                ], 
                "resourceType": "Observation", 
                "status": "unknown", 
                "subject": {
                    "reference": "Patient/ehealth-7777702"
                }, 
                "text": {
                    "div": "<div xmlns=\"http://www.w3.org/1999/xhtml\">2012-10-03: weight = 13.2 kg</div>", 
                    "status": "generated"
                }, 
                "valueQuantity": {
                    "code": "kg", 
                    "system": "http://unitsofmeasure.org", 
                    "unit": "kg", 
                    "value": 13.2
                }
            }
        }, 
        {
            "request": {
                "method": "PUT", 
                "url": "Observation/ehealth-1556-height"
            }, 
            "resource": {
                "category": [
                    {
                        "coding": [
                            {
                                "code": "vital-signs", 
                                "display": "Vital Signs", 
                                "system": "http://hl7.org/fhir/observation-category"
                            }
                        ], 
                        "text": "Vital Signs"
                    }
                ], 
                "code": {
                    "coding": [
                        {
                            "code": "8302-2", 
                            "display": "height", 
                            "system": "http://loinc.org"
                        }
                    ], 
                    "text": "height"
                }, 
                "context": {
                    "reference": "Encounter/ehealth-996"
                }, 
                "effectiveDateTime": "2013-02-26", 
                "id": "ehealth-1556-height", 
                "identifier": [
                    {
                        "system": "http://www.bmc.nl/zorgportal/identifiers/observations", 
                        "use": "official", 
                        "value": "ehealth-1556-height"
                    }
                ], 
                "performer": [
                    {
                        "reference": "Practitioner/ehealth-Practitioner-72080416"
                    }
                ], 
                "resourceType": "Observation", 
                "status": "unknown", 
                "subject": {
                    "reference": "Patient/ehealth-7777702"
                }, 
                "text": {
                    "div": "<div xmlns=\"http://www.w3.org/1999/xhtml\">2013-02-26: height = 98.8 cm</div>", 
                    "status": "generated"
                }, 
                "valueQuantity": {
                    "code": "cm", 
                    "system": "http://unitsofmeasure.org", 
                    "unit": "cm", 
                    "value": 98.8
                }
            }
        }, 
        {
            "request": {
                "method": "PUT", 
                "url": "Observation/ehealth-1557-weight"
            }, 
            "resource": {
                "category": [
                    {
                        "coding": [
                            {
                                "code": "vital-signs", 
                                "display": "Vital Signs", 
                                "system": "http://hl7.org/fhir/observation-category"
                            }
                        ], 
                        "text": "Vital Signs"
                    }
                ], 
                "code": {
                    "coding": [
                        {
                            "code": "3141-9", 
                            "display": "weight", 
                            "system": "http://loinc.org"
                        }
                    ], 
                    "text": "weight"
                }, 
                "context": {
                    "reference": "Encounter/ehealth-996"
                }, 
                "effectiveDateTime": "2013-02-26", 
                "id": "ehealth-1557-weight", 
                "identifier": [
                    {
                        "system": "http://www.bmc.nl/zorgportal/identifiers/observations", 
                        "use": "official", 
                        "value": "ehealth-1557-weight"
                    }
                ], 
                "performer": [
                    {
                        "reference": "Practitioner/ehealth-Practitioner-72080416"
                    }
                ], 
                "resourceType": "Observation", 
                "status": "unknown", 
                "subject": {
                    "reference": "Patient/ehealth-7777702"
                }, 
                "text": {
                    "div": "<div xmlns=\"http://www.w3.org/1999/xhtml\">2013-02-26: weight = 14.4 kg</div>", 
                    "status": "generated"
                }, 
                "valueQuantity": {
                    "code": "kg", 
                    "system": "http://unitsofmeasure.org", 
                    "unit": "kg", 
                    "value": 14.4
                }
            }
        }, 
        {
            "request": {
                "method": "PUT", 
                "url": "FamilyMemberHistory/ehealth-FamilyMemberHistory-9"
            }, 
            "resource": {
                "extension": [
                    {
                        "url": "http://fhir-registry.smarthealthit.org/StructureDefinition/family-history#height", 
                        "valueQuantity": {
                            "code": "cm", 
                            "system": "http://unitsofmeasure.org", 
                            "unit": "centimeters", 
                            "value": 177.0
                        }
                    }
                ], 
                "id": "ehealth-FamilyMemberHistory-9", 
                "patient": {
                    "reference": "Patient/ehealth-7777702"
                }, 
                "relationship": {
                    "coding": [
                        {
                            "code": "FTH", 
                            "display": "father", 
                            "system": "http://hl7.org/fhir/v3/RoleCode"
                        }
                    ], 
                    "text": "Father"
                }, 
                "resourceType": "FamilyMemberHistory", 
                "status": "completed", 
                "text": {
                    "div": "<div xmlns=\"http://www.w3.org/1999/xhtml\">Data on patient's Father</div>", 
                    "status": "generated"
                }
            }
        }, 
        {
            "request": {
                "method": "PUT", 
                "url": "FamilyMemberHistory/ehealth-FamilyMemberHistory-10"
            }, 
            "resource": {
                "extension": [
                    {
                        "url": "http://fhir-registry.smarthealthit.org/StructureDefinition/family-history#height", 
                        "valueQuantity": {
                            "code": "cm", 
                            "system": "http://unitsofmeasure.org", 
                            "unit": "centimeters", 
                            "value": 164.5
                        }
                    }
                ], 
                "id": "ehealth-FamilyMemberHistory-10", 
                "patient": {
                    "reference": "Patient/ehealth-7777702"
                }, 
                "relationship": {
                    "coding": [
                        {
                            "code": "MTH", 
                            "display": "mother", 
                            "system": "http://hl7.org/fhir/v3/RoleCode"
                        }
                    ], 
                    "text": "Mother"
                }, 
                "resourceType": "FamilyMemberHistory", 
                "status": "completed", 
                "text": {
                    "div": "<div xmlns=\"http://www.w3.org/1999/xhtml\">Data on patient's Mother</div>", 
                    "status": "generated"
                }
            }
        }
    ], 
    "resourceType": "Bundle", 
    "type": "transaction"
}
