{
    "entry": [
        {
            "request": {
                "method": "PUT", 
                "url": "MedicationRequest/ehealth-MedicationRequest-223"
            }, 
            "resource": {
                "dispenseRequest": {
                    "numberOfRepeatsAllowed": 1
                }, 
                "dosageInstruction": [
                    {
                        "asNeededBoolean": true, 
                        "text": "1 sl q5min x3 prn angina"
                    }
                ], 
                "id": "ehealth-MedicationRequest-223", 
                "intent": "order", 
                "medicationCodeableConcept": {
                    "coding": [
                        {
                            "code": "198039", 
                            "display": "Nitroglycerin 0.4 MG Sublingual Tablet", 
                            "system": "http://www.nlm.nih.gov/research/umls/rxnorm"
                        }
                    ], 
                    "text": "Nitroglycerin 0.4 MG Sublingual Tablet"
                }, 
                "resourceType": "MedicationRequest", 
                "status": "active", 
                "subject": {
                    "reference": "Patient/ehealth-2113340"
                }, 
                "text": {
                    "div": "<div xmlns=\"http://www.w3.org/1999/xhtml\">Nitroglycerin 0.4 MG Sublingual Tablet (rxnorm: 198039)</div>", 
                    "status": "generated"
                }
            }
        }, 
        {
            "request": {
                "method": "PUT", 
                "url": "MedicationDispense/ehealth-MedicationDispense-308"
            }, 
            "resource": {
                "authorizingPrescription": [
                    {
                        "reference": "MedicationRequest/ehealth-MedicationRequest-223"
                    }
                ], 
                "daysSupply": {
                    "code": "d", 
                    "system": "http://unitsofmeasure.org", 
                    "unit": "days", 
                    "value": 30
                }, 
                "id": "ehealth-MedicationDispense-308", 
                "medicationCodeableConcept": {
                    "coding": [
                        {
                            "code": "198039", 
                            "display": "Nitroglycerin 0.4 MG Sublingual Tablet", 
                            "system": "http://www.nlm.nih.gov/research/umls/rxnorm"
                        }
                    ], 
                    "text": "Nitroglycerin 0.4 MG Sublingual Tablet"
                }, 
                "quantity": {
                    "code": "{tablets}", 
                    "system": "http://unitsofmeasure.org", 
                    "unit": "tablets", 
                    "value": 25.0
                }, 
                "resourceType": "MedicationDispense", 
                "status": "completed", 
                "subject": {
                    "reference": "Patient/ehealth-2113340"
                }, 
                "text": {
                    "div": "<div xmlns=\"http://www.w3.org/1999/xhtml\">Dispensed 25 tablets = 30 day supply of Nitroglycerin 0.4 MG Sublingual Tablet</div>", 
                    "status": "generated"
                }, 
                "whenHandedOver": "2009-03-07"
            }
        }, 
        {
            "request": {
                "method": "PUT", 
                "url": "MedicationRequest/ehealth-MedicationRequest-224"
            }, 
            "resource": {
                "dispenseRequest": {
                    "expectedSupplyDuration": {
                        "code": "d", 
                        "system": "http://unitsofmeasure.org", 
                        "unit": "days", 
                        "value": 30
                    }, 
                    "numberOfRepeatsAllowed": 1, 
                    "quantity": {
                        "code": "{tablet}", 
                        "system": "http://unitsofmeasure.org", 
                        "unit": "{tablet}", 
                        "value": 30.0
                    }
                }, 
                "dosageInstruction": [
                    {
                        "doseQuantity": {
                            "code": "{tablet}", 
                            "system": "http://unitsofmeasure.org", 
                            "unit": "{tablet}", 
                            "value": 1.0
                        }, 
                        "text": "1 bid", 
                        "timing": {
                            "repeat": {
                                "boundsPeriod": {
                                    "start": "2009-03-07"
                                }, 
                                "frequency": 2, 
                                "period": 1, 
                                "periodUnit": "d"
                            }
                        }
                    }
                ], 
                "id": "ehealth-MedicationRequest-224", 
                "intent": "order", 
                "medicationCodeableConcept": {
                    "coding": [
                        {
                            "code": "866924", 
                            "display": "Metoprolol 25 MG Oral Tablet", 
                            "system": "http://www.nlm.nih.gov/research/umls/rxnorm"
                        }
                    ], 
                    "text": "Metoprolol 25 MG Oral Tablet"
                }, 
                "resourceType": "MedicationRequest", 
                "status": "active", 
                "subject": {
                    "reference": "Patient/ehealth-2113340"
                }, 
                "text": {
                    "div": "<div xmlns=\"http://www.w3.org/1999/xhtml\">Metoprolol 25 MG Oral Tablet (rxnorm: 866924)</div>", 
                    "status": "generated"
                }
            }
        }, 
        {
            "request": {
                "method": "PUT", 
                "url": "MedicationDispense/ehealth-MedicationDispense-339"
            }, 
            "resource": {
                "authorizingPrescription": [
                    {
                        "reference": "MedicationRequest/ehealth-MedicationRequest-224"
                    }
                ], 
                "daysSupply": {
                    "code": "d", 
                    "system": "http://unitsofmeasure.org", 
                    "unit": "days", 
                    "value": 30
                }, 
                "id": "ehealth-MedicationDispense-339", 
                "medicationCodeableConcept": {
                    "coding": [
                        {
                            "code": "866924", 
                            "display": "Metoprolol 25 MG Oral Tablet", 
                            "system": "http://www.nlm.nih.gov/research/umls/rxnorm"
                        }
                    ], 
                    "text": "Metoprolol 25 MG Oral Tablet"
                }, 
                "quantity": {
                    "code": "{tablets}", 
                    "system": "http://unitsofmeasure.org", 
                    "unit": "tablets", 
                    "value": 30.0
                }, 
                "resourceType": "MedicationDispense", 
                "status": "completed", 
                "subject": {
                    "reference": "Patient/ehealth-2113340"
                }, 
                "text": {
                    "div": "<div xmlns=\"http://www.w3.org/1999/xhtml\">Dispensed 30 tablets = 30 day supply of Metoprolol 25 MG Oral Tablet</div>", 
                    "status": "generated"
                }, 
                "whenHandedOver": "2009-03-07"
            }
        }, 
        {
            "request": {
                "method": "PUT", 
                "url": "MedicationRequest/ehealth-MedicationRequest-225"
            }, 
            "resource": {
                "dispenseRequest": {
                    "expectedSupplyDuration": {
                        "code": "d", 
                        "system": "http://unitsofmeasure.org", 
                        "unit": "days", 
                        "value": 30
                    }, 
                    "numberOfRepeatsAllowed": 1, 
                    "quantity": {
                        "code": "{tablet}", 
                        "system": "http://unitsofmeasure.org", 
                        "unit": "{tablet}", 
                        "value": 30.0
                    }
                }, 
                "dosageInstruction": [
                    {
                        "doseQuantity": {
                            "code": "{tablet}", 
                            "system": "http://unitsofmeasure.org", 
                            "unit": "{tablet}", 
                            "value": 1.0
                        }, 
                        "text": "1 daily", 
                        "timing": {
                            "repeat": {
                                "boundsPeriod": {
                                    "start": "2009-03-10"
                                }, 
                                "frequency": 1, 
                                "period": 1, 
                                "periodUnit": "d"
                            }
                        }
                    }
                ], 
                "id": "ehealth-MedicationRequest-225", 
                "intent": "order", 
                "medicationCodeableConcept": {
                    "coding": [
                        {
                            "code": "213169", 
                            "display": "clopidogrel 75 MG Oral Tablet [Plavix]", 
                            "system": "http://www.nlm.nih.gov/research/umls/rxnorm"
                        }
                    ], 
                    "text": "clopidogrel 75 MG Oral Tablet [Plavix]"
                }, 
                "resourceType": "MedicationRequest", 
                "status": "active", 
                "subject": {
                    "reference": "Patient/ehealth-2113340"
                }, 
                "text": {
                    "div": "<div xmlns=\"http://www.w3.org/1999/xhtml\">clopidogrel 75 MG Oral Tablet [Plavix] (rxnorm: 213169)</div>", 
                    "status": "generated"
                }
            }
        }, 
        {
            "request": {
                "method": "PUT", 
                "url": "MedicationDispense/ehealth-MedicationDispense-312"
            }, 
            "resource": {
                "authorizingPrescription": [
                    {
                        "reference": "MedicationRequest/ehealth-MedicationRequest-225"
                    }
                ], 
                "daysSupply": {
                    "code": "d", 
                    "system": "http://unitsofmeasure.org", 
                    "unit": "days", 
                    "value": 30
                }, 
                "id": "ehealth-MedicationDispense-312", 
                "medicationCodeableConcept": {
                    "coding": [
                        {
                            "code": "213169", 
                            "display": "clopidogrel 75 MG Oral Tablet [Plavix]", 
                            "system": "http://www.nlm.nih.gov/research/umls/rxnorm"
                        }
                    ], 
                    "text": "clopidogrel 75 MG Oral Tablet [Plavix]"
                }, 
                "quantity": {
                    "code": "{tablets}", 
                    "system": "http://unitsofmeasure.org", 
                    "unit": "tablets", 
                    "value": 30.0
                }, 
                "resourceType": "MedicationDispense", 
                "status": "completed", 
                "subject": {
                    "reference": "Patient/ehealth-2113340"
                }, 
                "text": {
                    "div": "<div xmlns=\"http://www.w3.org/1999/xhtml\">Dispensed 30 tablets = 30 day supply of clopidogrel 75 MG Oral Tablet [Plavix]</div>", 
                    "status": "generated"
                }, 
                "whenHandedOver": "2009-06-08"
            }
        }, 
        {
            "request": {
                "method": "PUT", 
                "url": "MedicationDispense/ehealth-MedicationDispense-313"
            }, 
            "resource": {
                "authorizingPrescription": [
                    {
                        "reference": "MedicationRequest/ehealth-MedicationRequest-225"
                    }
                ], 
                "daysSupply": {
                    "code": "d", 
                    "system": "http://unitsofmeasure.org", 
                    "unit": "days", 
                    "value": 30
                }, 
                "id": "ehealth-MedicationDispense-313", 
                "medicationCodeableConcept": {
                    "coding": [
                        {
                            "code": "213169", 
                            "display": "clopidogrel 75 MG Oral Tablet [Plavix]", 
                            "system": "http://www.nlm.nih.gov/research/umls/rxnorm"
                        }
                    ], 
                    "text": "clopidogrel 75 MG Oral Tablet [Plavix]"
                }, 
                "quantity": {
                    "code": "{tablets}", 
                    "system": "http://unitsofmeasure.org", 
                    "unit": "tablets", 
                    "value": 30.0
                }, 
                "resourceType": "MedicationDispense", 
                "status": "completed", 
                "subject": {
                    "reference": "Patient/ehealth-2113340"
                }, 
                "text": {
                    "div": "<div xmlns=\"http://www.w3.org/1999/xhtml\">Dispensed 30 tablets = 30 day supply of clopidogrel 75 MG Oral Tablet [Plavix]</div>", 
                    "status": "generated"
                }, 
                "whenHandedOver": "2009-07-08"
            }
        }, 
        {
            "request": {
                "method": "PUT", 
                "url": "MedicationDispense/ehealth-MedicationDispense-314"
            }, 
            "resource": {
                "authorizingPrescription": [
                    {
                        "reference": "MedicationRequest/ehealth-MedicationRequest-225"
                    }
                ], 
                "daysSupply": {
                    "code": "d", 
                    "system": "http://unitsofmeasure.org", 
                    "unit": "days", 
                    "value": 30
                }, 
                "id": "ehealth-MedicationDispense-314", 
                "medicationCodeableConcept": {
                    "coding": [
                        {
                            "code": "213169", 
                            "display": "clopidogrel 75 MG Oral Tablet [Plavix]", 
                            "system": "http://www.nlm.nih.gov/research/umls/rxnorm"
                        }
                    ], 
                    "text": "clopidogrel 75 MG Oral Tablet [Plavix]"
                }, 
                "quantity": {
                    "code": "{tablets}", 
                    "system": "http://unitsofmeasure.org", 
                    "unit": "tablets", 
                    "value": 30.0
                }, 
                "resourceType": "MedicationDispense", 
                "status": "completed", 
                "subject": {
                    "reference": "Patient/ehealth-2113340"
                }, 
                "text": {
                    "div": "<div xmlns=\"http://www.w3.org/1999/xhtml\">Dispensed 30 tablets = 30 day supply of clopidogrel 75 MG Oral Tablet [Plavix]</div>", 
                    "status": "generated"
                }, 
                "whenHandedOver": "2009-08-05"
            }
        }, 
        {
            "request": {
                "method": "PUT", 
                "url": "MedicationDispense/ehealth-MedicationDispense-311"
            }, 
            "resource": {
                "authorizingPrescription": [
                    {
                        "reference": "MedicationRequest/ehealth-MedicationRequest-225"
                    }
                ], 
                "daysSupply": {
                    "code": "d", 
                    "system": "http://unitsofmeasure.org", 
                    "unit": "days", 
                    "value": 30
                }, 
                "id": "ehealth-MedicationDispense-311", 
                "medicationCodeableConcept": {
                    "coding": [
                        {
                            "code": "213169", 
                            "display": "clopidogrel 75 MG Oral Tablet [Plavix]", 
                            "system": "http://www.nlm.nih.gov/research/umls/rxnorm"
                        }
                    ], 
                    "text": "clopidogrel 75 MG Oral Tablet [Plavix]"
                }, 
                "quantity": {
                    "code": "{tablets}", 
                    "system": "http://unitsofmeasure.org", 
                    "unit": "tablets", 
                    "value": 30.0
                }, 
                "resourceType": "MedicationDispense", 
                "status": "completed", 
                "subject": {
                    "reference": "Patient/ehealth-2113340"
                }, 
                "text": {
                    "div": "<div xmlns=\"http://www.w3.org/1999/xhtml\">Dispensed 30 tablets = 30 day supply of clopidogrel 75 MG Oral Tablet [Plavix]</div>", 
                    "status": "generated"
                }, 
                "whenHandedOver": "2009-05-09"
            }
        }, 
        {
            "request": {
                "method": "PUT", 
                "url": "MedicationDispense/ehealth-MedicationDispense-309"
            }, 
            "resource": {
                "authorizingPrescription": [
                    {
                        "reference": "MedicationRequest/ehealth-MedicationRequest-225"
                    }
                ], 
                "daysSupply": {
                    "code": "d", 
                    "system": "http://unitsofmeasure.org", 
                    "unit": "days", 
                    "value": 30
                }, 
                "id": "ehealth-MedicationDispense-309", 
                "medicationCodeableConcept": {
                    "coding": [
                        {
                            "code": "213169", 
                            "display": "clopidogrel 75 MG Oral Tablet [Plavix]", 
                            "system": "http://www.nlm.nih.gov/research/umls/rxnorm"
                        }
                    ], 
                    "text": "clopidogrel 75 MG Oral Tablet [Plavix]"
                }, 
                "quantity": {
                    "code": "{tablets}", 
                    "system": "http://unitsofmeasure.org", 
                    "unit": "tablets", 
                    "value": 30.0
                }, 
                "resourceType": "MedicationDispense", 
                "status": "completed", 
                "subject": {
                    "reference": "Patient/ehealth-2113340"
                }, 
                "text": {
                    "div": "<div xmlns=\"http://www.w3.org/1999/xhtml\">Dispensed 30 tablets = 30 day supply of clopidogrel 75 MG Oral Tablet [Plavix]</div>", 
                    "status": "generated"
                }, 
                "whenHandedOver": "2009-03-10"
            }
        }, 
        {
            "request": {
                "method": "PUT", 
                "url": "MedicationDispense/ehealth-MedicationDispense-310"
            }, 
            "resource": {
                "authorizingPrescription": [
                    {
                        "reference": "MedicationRequest/ehealth-MedicationRequest-225"
                    }
                ], 
                "daysSupply": {
                    "code": "d", 
                    "system": "http://unitsofmeasure.org", 
                    "unit": "days", 
                    "value": 30
                }, 
                "id": "ehealth-MedicationDispense-310", 
                "medicationCodeableConcept": {
                    "coding": [
                        {
                            "code": "213169", 
                            "display": "clopidogrel 75 MG Oral Tablet [Plavix]", 
                            "system": "http://www.nlm.nih.gov/research/umls/rxnorm"
                        }
                    ], 
                    "text": "clopidogrel 75 MG Oral Tablet [Plavix]"
                }, 
                "quantity": {
                    "code": "{tablets}", 
                    "system": "http://unitsofmeasure.org", 
                    "unit": "tablets", 
                    "value": 30.0
                }, 
                "resourceType": "MedicationDispense", 
                "status": "completed", 
                "subject": {
                    "reference": "Patient/ehealth-2113340"
                }, 
                "text": {
                    "div": "<div xmlns=\"http://www.w3.org/1999/xhtml\">Dispensed 30 tablets = 30 day supply of clopidogrel 75 MG Oral Tablet [Plavix]</div>", 
                    "status": "generated"
                }, 
                "whenHandedOver": "2009-04-09"
            }
        }, 
        {
            "request": {
                "method": "PUT", 
                "url": "MedicationDispense/ehealth-MedicationDispense-315"
            }, 
            "resource": {
                "authorizingPrescription": [
                    {
                        "reference": "MedicationRequest/ehealth-MedicationRequest-225"
                    }
                ], 
                "daysSupply": {
                    "code": "d", 
                    "system": "http://unitsofmeasure.org", 
                    "unit": "days", 
                    "value": 30
                }, 
                "id": "ehealth-MedicationDispense-315", 
                "medicationCodeableConcept": {
                    "coding": [
                        {
                            "code": "213169", 
                            "display": "clopidogrel 75 MG Oral Tablet [Plavix]", 
                            "system": "http://www.nlm.nih.gov/research/umls/rxnorm"
                        }
                    ], 
                    "text": "clopidogrel 75 MG Oral Tablet [Plavix]"
                }, 
                "quantity": {
                    "code": "{tablets}", 
                    "system": "http://unitsofmeasure.org", 
                    "unit": "tablets", 
                    "value": 30.0
                }, 
                "resourceType": "MedicationDispense", 
                "status": "completed", 
                "subject": {
                    "reference": "Patient/ehealth-2113340"
                }, 
                "text": {
                    "div": "<div xmlns=\"http://www.w3.org/1999/xhtml\">Dispensed 30 tablets = 30 day supply of clopidogrel 75 MG Oral Tablet [Plavix]</div>", 
                    "status": "generated"
                }, 
                "whenHandedOver": "2009-09-05"
            }
        }, 
        {
            "request": {
                "method": "PUT", 
                "url": "MedicationRequest/ehealth-MedicationRequest-226"
            }, 
            "resource": {
                "dispenseRequest": {
                    "expectedSupplyDuration": {
                        "code": "d", 
                        "system": "http://unitsofmeasure.org", 
                        "unit": "days", 
                        "value": 30
                    }, 
                    "numberOfRepeatsAllowed": 1, 
                    "quantity": {
                        "code": "{tablet}", 
                        "system": "http://unitsofmeasure.org", 
                        "unit": "{tablet}", 
                        "value": 30.0
                    }
                }, 
                "dosageInstruction": [
                    {
                        "doseQuantity": {
                            "code": "{tablet}", 
                            "system": "http://unitsofmeasure.org", 
                            "unit": "{tablet}", 
                            "value": 1.0
                        }, 
                        "text": "1 qhs", 
                        "timing": {
                            "repeat": {
                                "boundsPeriod": {
                                    "start": "2009-03-10"
                                }, 
                                "frequency": 1, 
                                "period": 1, 
                                "periodUnit": "d"
                            }
                        }
                    }
                ], 
                "id": "ehealth-MedicationRequest-226", 
                "intent": "order", 
                "medicationCodeableConcept": {
                    "coding": [
                        {
                            "code": "262095", 
                            "display": "atorvastatin 80 MG Oral Tablet [Lipitor]", 
                            "system": "http://www.nlm.nih.gov/research/umls/rxnorm"
                        }
                    ], 
                    "text": "atorvastatin 80 MG Oral Tablet [Lipitor]"
                }, 
                "resourceType": "MedicationRequest", 
                "status": "active", 
                "subject": {
                    "reference": "Patient/ehealth-2113340"
                }, 
                "text": {
                    "div": "<div xmlns=\"http://www.w3.org/1999/xhtml\">atorvastatin 80 MG Oral Tablet [Lipitor] (rxnorm: 262095)</div>", 
                    "status": "generated"
                }
            }
        }, 
        {
            "request": {
                "method": "PUT", 
                "url": "MedicationDispense/ehealth-MedicationDispense-330"
            }, 
            "resource": {
                "authorizingPrescription": [
                    {
                        "reference": "MedicationRequest/ehealth-MedicationRequest-226"
                    }
                ], 
                "daysSupply": {
                    "code": "d", 
                    "system": "http://unitsofmeasure.org", 
                    "unit": "days", 
                    "value": 30
                }, 
                "id": "ehealth-MedicationDispense-330", 
                "medicationCodeableConcept": {
                    "coding": [
                        {
                            "code": "262095", 
                            "display": "atorvastatin 80 MG Oral Tablet [Lipitor]", 
                            "system": "http://www.nlm.nih.gov/research/umls/rxnorm"
                        }
                    ], 
                    "text": "atorvastatin 80 MG Oral Tablet [Lipitor]"
                }, 
                "quantity": {
                    "code": "{tablets}", 
                    "system": "http://unitsofmeasure.org", 
                    "unit": "tablets", 
                    "value": 30.0
                }, 
                "resourceType": "MedicationDispense", 
                "status": "completed", 
                "subject": {
                    "reference": "Patient/ehealth-2113340"
                }, 
                "text": {
                    "div": "<div xmlns=\"http://www.w3.org/1999/xhtml\">Dispensed 30 tablets = 30 day supply of atorvastatin 80 MG Oral Tablet [Lipitor]</div>", 
                    "status": "generated"
                }, 
                "whenHandedOver": "2009-08-05"
            }
        }, 
        {
            "request": {
                "method": "PUT", 
                "url": "MedicationDispense/ehealth-MedicationDispense-327"
            }, 
            "resource": {
                "authorizingPrescription": [
                    {
                        "reference": "MedicationRequest/ehealth-MedicationRequest-226"
                    }
                ], 
                "daysSupply": {
                    "code": "d", 
                    "system": "http://unitsofmeasure.org", 
                    "unit": "days", 
                    "value": 30
                }, 
                "id": "ehealth-MedicationDispense-327", 
                "medicationCodeableConcept": {
                    "coding": [
                        {
                            "code": "262095", 
                            "display": "atorvastatin 80 MG Oral Tablet [Lipitor]", 
                            "system": "http://www.nlm.nih.gov/research/umls/rxnorm"
                        }
                    ], 
                    "text": "atorvastatin 80 MG Oral Tablet [Lipitor]"
                }, 
                "quantity": {
                    "code": "{tablets}", 
                    "system": "http://unitsofmeasure.org", 
                    "unit": "tablets", 
                    "value": 30.0
                }, 
                "resourceType": "MedicationDispense", 
                "status": "completed", 
                "subject": {
                    "reference": "Patient/ehealth-2113340"
                }, 
                "text": {
                    "div": "<div xmlns=\"http://www.w3.org/1999/xhtml\">Dispensed 30 tablets = 30 day supply of atorvastatin 80 MG Oral Tablet [Lipitor]</div>", 
                    "status": "generated"
                }, 
                "whenHandedOver": "2009-05-09"
            }
        }, 
        {
            "request": {
                "method": "PUT", 
                "url": "MedicationDispense/ehealth-MedicationDispense-325"
            }, 
            "resource": {
                "authorizingPrescription": [
                    {
                        "reference": "MedicationRequest/ehealth-MedicationRequest-226"
                    }
                ], 
                "daysSupply": {
                    "code": "d", 
                    "system": "http://unitsofmeasure.org", 
                    "unit": "days", 
                    "value": 30
                }, 
                "id": "ehealth-MedicationDispense-325", 
                "medicationCodeableConcept": {
                    "coding": [
                        {
                            "code": "262095", 
                            "display": "atorvastatin 80 MG Oral Tablet [Lipitor]", 
                            "system": "http://www.nlm.nih.gov/research/umls/rxnorm"
                        }
                    ], 
                    "text": "atorvastatin 80 MG Oral Tablet [Lipitor]"
                }, 
                "quantity": {
                    "code": "{tablets}", 
                    "system": "http://unitsofmeasure.org", 
                    "unit": "tablets", 
                    "value": 30.0
                }, 
                "resourceType": "MedicationDispense", 
                "status": "completed", 
                "subject": {
                    "reference": "Patient/ehealth-2113340"
                }, 
                "text": {
                    "div": "<div xmlns=\"http://www.w3.org/1999/xhtml\">Dispensed 30 tablets = 30 day supply of atorvastatin 80 MG Oral Tablet [Lipitor]</div>", 
                    "status": "generated"
                }, 
                "whenHandedOver": "2009-03-10"
            }
        }, 
        {
            "request": {
                "method": "PUT", 
                "url": "MedicationDispense/ehealth-MedicationDispense-326"
            }, 
            "resource": {
                "authorizingPrescription": [
                    {
                        "reference": "MedicationRequest/ehealth-MedicationRequest-226"
                    }
                ], 
                "daysSupply": {
                    "code": "d", 
                    "system": "http://unitsofmeasure.org", 
                    "unit": "days", 
                    "value": 30
                }, 
                "id": "ehealth-MedicationDispense-326", 
                "medicationCodeableConcept": {
                    "coding": [
                        {
                            "code": "262095", 
                            "display": "atorvastatin 80 MG Oral Tablet [Lipitor]", 
                            "system": "http://www.nlm.nih.gov/research/umls/rxnorm"
                        }
                    ], 
                    "text": "atorvastatin 80 MG Oral Tablet [Lipitor]"
                }, 
                "quantity": {
                    "code": "{tablets}", 
                    "system": "http://unitsofmeasure.org", 
                    "unit": "tablets", 
                    "value": 30.0
                }, 
                "resourceType": "MedicationDispense", 
                "status": "completed", 
                "subject": {
                    "reference": "Patient/ehealth-2113340"
                }, 
                "text": {
                    "div": "<div xmlns=\"http://www.w3.org/1999/xhtml\">Dispensed 30 tablets = 30 day supply of atorvastatin 80 MG Oral Tablet [Lipitor]</div>", 
                    "status": "generated"
                }, 
                "whenHandedOver": "2009-04-09"
            }
        }, 
        {
            "request": {
                "method": "PUT", 
                "url": "MedicationDispense/ehealth-MedicationDispense-331"
            }, 
            "resource": {
                "authorizingPrescription": [
                    {
                        "reference": "MedicationRequest/ehealth-MedicationRequest-226"
                    }
                ], 
                "daysSupply": {
                    "code": "d", 
                    "system": "http://unitsofmeasure.org", 
                    "unit": "days", 
                    "value": 30
                }, 
                "id": "ehealth-MedicationDispense-331", 
                "medicationCodeableConcept": {
                    "coding": [
                        {
                            "code": "262095", 
                            "display": "atorvastatin 80 MG Oral Tablet [Lipitor]", 
                            "system": "http://www.nlm.nih.gov/research/umls/rxnorm"
                        }
                    ], 
                    "text": "atorvastatin 80 MG Oral Tablet [Lipitor]"
                }, 
                "quantity": {
                    "code": "{tablets}", 
                    "system": "http://unitsofmeasure.org", 
                    "unit": "tablets", 
                    "value": 30.0
                }, 
                "resourceType": "MedicationDispense", 
                "status": "completed", 
                "subject": {
                    "reference": "Patient/ehealth-2113340"
                }, 
                "text": {
                    "div": "<div xmlns=\"http://www.w3.org/1999/xhtml\">Dispensed 30 tablets = 30 day supply of atorvastatin 80 MG Oral Tablet [Lipitor]</div>", 
                    "status": "generated"
                }, 
                "whenHandedOver": "2009-09-05"
            }
        }, 
        {
            "request": {
                "method": "PUT", 
                "url": "MedicationDispense/ehealth-MedicationDispense-328"
            }, 
            "resource": {
                "authorizingPrescription": [
                    {
                        "reference": "MedicationRequest/ehealth-MedicationRequest-226"
                    }
                ], 
                "daysSupply": {
                    "code": "d", 
                    "system": "http://unitsofmeasure.org", 
                    "unit": "days", 
                    "value": 30
                }, 
                "id": "ehealth-MedicationDispense-328", 
                "medicationCodeableConcept": {
                    "coding": [
                        {
                            "code": "262095", 
                            "display": "atorvastatin 80 MG Oral Tablet [Lipitor]", 
                            "system": "http://www.nlm.nih.gov/research/umls/rxnorm"
                        }
                    ], 
                    "text": "atorvastatin 80 MG Oral Tablet [Lipitor]"
                }, 
                "quantity": {
                    "code": "{tablets}", 
                    "system": "http://unitsofmeasure.org", 
                    "unit": "tablets", 
                    "value": 30.0
                }, 
                "resourceType": "MedicationDispense", 
                "status": "completed", 
                "subject": {
                    "reference": "Patient/ehealth-2113340"
                }, 
                "text": {
                    "div": "<div xmlns=\"http://www.w3.org/1999/xhtml\">Dispensed 30 tablets = 30 day supply of atorvastatin 80 MG Oral Tablet [Lipitor]</div>", 
                    "status": "generated"
                }, 
                "whenHandedOver": "2009-06-08"
            }
        }, 
        {
            "request": {
                "method": "PUT", 
                "url": "MedicationDispense/ehealth-MedicationDispense-329"
            }, 
            "resource": {
                "authorizingPrescription": [
                    {
                        "reference": "MedicationRequest/ehealth-MedicationRequest-226"
                    }
                ], 
                "daysSupply": {
                    "code": "d", 
                    "system": "http://unitsofmeasure.org", 
                    "unit": "days", 
                    "value": 30
                }, 
                "id": "ehealth-MedicationDispense-329", 
                "medicationCodeableConcept": {
                    "coding": [
                        {
                            "code": "262095", 
                            "display": "atorvastatin 80 MG Oral Tablet [Lipitor]", 
                            "system": "http://www.nlm.nih.gov/research/umls/rxnorm"
                        }
                    ], 
                    "text": "atorvastatin 80 MG Oral Tablet [Lipitor]"
                }, 
                "quantity": {
                    "code": "{tablets}", 
                    "system": "http://unitsofmeasure.org", 
                    "unit": "tablets", 
                    "value": 30.0
                }, 
                "resourceType": "MedicationDispense", 
                "status": "completed", 
                "subject": {
                    "reference": "Patient/ehealth-2113340"
                }, 
                "text": {
                    "div": "<div xmlns=\"http://www.w3.org/1999/xhtml\">Dispensed 30 tablets = 30 day supply of atorvastatin 80 MG Oral Tablet [Lipitor]</div>", 
                    "status": "generated"
                }, 
                "whenHandedOver": "2009-07-08"
            }
        }, 
        {
            "request": {
                "method": "PUT", 
                "url": "MedicationRequest/ehealth-MedicationRequest-227"
            }, 
            "resource": {
                "dispenseRequest": {
                    "expectedSupplyDuration": {
                        "code": "d", 
                        "system": "http://unitsofmeasure.org", 
                        "unit": "days", 
                        "value": 30
                    }, 
                    "numberOfRepeatsAllowed": 1, 
                    "quantity": {
                        "code": "{tablet}", 
                        "system": "http://unitsofmeasure.org", 
                        "unit": "{tablet}", 
                        "value": 30.0
                    }
                }, 
                "dosageInstruction": [
                    {
                        "doseQuantity": {
                            "code": "{tablet}", 
                            "system": "http://unitsofmeasure.org", 
                            "unit": "{tablet}", 
                            "value": 1.0
                        }, 
                        "text": "1 daily", 
                        "timing": {
                            "repeat": {
                                "boundsPeriod": {
                                    "start": "2009-04-09"
                                }, 
                                "frequency": 1, 
                                "period": 1, 
                                "periodUnit": "d"
                            }
                        }
                    }
                ], 
                "id": "ehealth-MedicationRequest-227", 
                "intent": "order", 
                "medicationCodeableConcept": {
                    "coding": [
                        {
                            "code": "311354", 
                            "display": "Lisinopril 5 MG Oral Tablet", 
                            "system": "http://www.nlm.nih.gov/research/umls/rxnorm"
                        }
                    ], 
                    "text": "Lisinopril 5 MG Oral Tablet"
                }, 
                "resourceType": "MedicationRequest", 
                "status": "active", 
                "subject": {
                    "reference": "Patient/ehealth-2113340"
                }, 
                "text": {
                    "div": "<div xmlns=\"http://www.w3.org/1999/xhtml\">Lisinopril 5 MG Oral Tablet (rxnorm: 311354)</div>", 
                    "status": "generated"
                }
            }
        }, 
        {
            "request": {
                "method": "PUT", 
                "url": "MedicationDispense/ehealth-MedicationDispense-337"
            }, 
            "resource": {
                "authorizingPrescription": [
                    {
                        "reference": "MedicationRequest/ehealth-MedicationRequest-227"
                    }
                ], 
                "daysSupply": {
                    "code": "d", 
                    "system": "http://unitsofmeasure.org", 
                    "unit": "days", 
                    "value": 30
                }, 
                "id": "ehealth-MedicationDispense-337", 
                "medicationCodeableConcept": {
                    "coding": [
                        {
                            "code": "311354", 
                            "display": "Lisinopril 5 MG Oral Tablet", 
                            "system": "http://www.nlm.nih.gov/research/umls/rxnorm"
                        }
                    ], 
                    "text": "Lisinopril 5 MG Oral Tablet"
                }, 
                "quantity": {
                    "code": "{tablets}", 
                    "system": "http://unitsofmeasure.org", 
                    "unit": "tablets", 
                    "value": 30.0
                }, 
                "resourceType": "MedicationDispense", 
                "status": "completed", 
                "subject": {
                    "reference": "Patient/ehealth-2113340"
                }, 
                "text": {
                    "div": "<div xmlns=\"http://www.w3.org/1999/xhtml\">Dispensed 30 tablets = 30 day supply of Lisinopril 5 MG Oral Tablet</div>", 
                    "status": "generated"
                }, 
                "whenHandedOver": "2009-09-05"
            }
        }, 
        {
            "request": {
                "method": "PUT", 
                "url": "MedicationDispense/ehealth-MedicationDispense-332"
            }, 
            "resource": {
                "authorizingPrescription": [
                    {
                        "reference": "MedicationRequest/ehealth-MedicationRequest-227"
                    }
                ], 
                "daysSupply": {
                    "code": "d", 
                    "system": "http://unitsofmeasure.org", 
                    "unit": "days", 
                    "value": 30
                }, 
                "id": "ehealth-MedicationDispense-332", 
                "medicationCodeableConcept": {
                    "coding": [
                        {
                            "code": "311354", 
                            "display": "Lisinopril 5 MG Oral Tablet", 
                            "system": "http://www.nlm.nih.gov/research/umls/rxnorm"
                        }
                    ], 
                    "text": "Lisinopril 5 MG Oral Tablet"
                }, 
                "quantity": {
                    "code": "{tablets}", 
                    "system": "http://unitsofmeasure.org", 
                    "unit": "tablets", 
                    "value": 30.0
                }, 
                "resourceType": "MedicationDispense", 
                "status": "completed", 
                "subject": {
                    "reference": "Patient/ehealth-2113340"
                }, 
                "text": {
                    "div": "<div xmlns=\"http://www.w3.org/1999/xhtml\">Dispensed 30 tablets = 30 day supply of Lisinopril 5 MG Oral Tablet</div>", 
                    "status": "generated"
                }, 
                "whenHandedOver": "2009-04-09"
            }
        }, 
        {
            "request": {
                "method": "PUT", 
                "url": "MedicationDispense/ehealth-MedicationDispense-333"
            }, 
            "resource": {
                "authorizingPrescription": [
                    {
                        "reference": "MedicationRequest/ehealth-MedicationRequest-227"
                    }
                ], 
                "daysSupply": {
                    "code": "d", 
                    "system": "http://unitsofmeasure.org", 
                    "unit": "days", 
                    "value": 30
                }, 
                "id": "ehealth-MedicationDispense-333", 
                "medicationCodeableConcept": {
                    "coding": [
                        {
                            "code": "311354", 
                            "display": "Lisinopril 5 MG Oral Tablet", 
                            "system": "http://www.nlm.nih.gov/research/umls/rxnorm"
                        }
                    ], 
                    "text": "Lisinopril 5 MG Oral Tablet"
                }, 
                "quantity": {
                    "code": "{tablets}", 
                    "system": "http://unitsofmeasure.org", 
                    "unit": "tablets", 
                    "value": 30.0
                }, 
                "resourceType": "MedicationDispense", 
                "status": "completed", 
                "subject": {
                    "reference": "Patient/ehealth-2113340"
                }, 
                "text": {
                    "div": "<div xmlns=\"http://www.w3.org/1999/xhtml\">Dispensed 30 tablets = 30 day supply of Lisinopril 5 MG Oral Tablet</div>", 
                    "status": "generated"
                }, 
                "whenHandedOver": "2009-05-09"
            }
        }, 
        {
            "request": {
                "method": "PUT", 
                "url": "MedicationDispense/ehealth-MedicationDispense-336"
            }, 
            "resource": {
                "authorizingPrescription": [
                    {
                        "reference": "MedicationRequest/ehealth-MedicationRequest-227"
                    }
                ], 
                "daysSupply": {
                    "code": "d", 
                    "system": "http://unitsofmeasure.org", 
                    "unit": "days", 
                    "value": 30
                }, 
                "id": "ehealth-MedicationDispense-336", 
                "medicationCodeableConcept": {
                    "coding": [
                        {
                            "code": "311354", 
                            "display": "Lisinopril 5 MG Oral Tablet", 
                            "system": "http://www.nlm.nih.gov/research/umls/rxnorm"
                        }
                    ], 
                    "text": "Lisinopril 5 MG Oral Tablet"
                }, 
                "quantity": {
                    "code": "{tablets}", 
                    "system": "http://unitsofmeasure.org", 
                    "unit": "tablets", 
                    "value": 30.0
                }, 
                "resourceType": "MedicationDispense", 
                "status": "completed", 
                "subject": {
                    "reference": "Patient/ehealth-2113340"
                }, 
                "text": {
                    "div": "<div xmlns=\"http://www.w3.org/1999/xhtml\">Dispensed 30 tablets = 30 day supply of Lisinopril 5 MG Oral Tablet</div>", 
                    "status": "generated"
                }, 
                "whenHandedOver": "2009-08-05"
            }
        }, 
        {
            "request": {
                "method": "PUT", 
                "url": "MedicationDispense/ehealth-MedicationDispense-335"
            }, 
            "resource": {
                "authorizingPrescription": [
                    {
                        "reference": "MedicationRequest/ehealth-MedicationRequest-227"
                    }
                ], 
                "daysSupply": {
                    "code": "d", 
                    "system": "http://unitsofmeasure.org", 
                    "unit": "days", 
                    "value": 30
                }, 
                "id": "ehealth-MedicationDispense-335", 
                "medicationCodeableConcept": {
                    "coding": [
                        {
                            "code": "311354", 
                            "display": "Lisinopril 5 MG Oral Tablet", 
                            "system": "http://www.nlm.nih.gov/research/umls/rxnorm"
                        }
                    ], 
                    "text": "Lisinopril 5 MG Oral Tablet"
                }, 
                "quantity": {
                    "code": "{tablets}", 
                    "system": "http://unitsofmeasure.org", 
                    "unit": "tablets", 
                    "value": 30.0
                }, 
                "resourceType": "MedicationDispense", 
                "status": "completed", 
                "subject": {
                    "reference": "Patient/ehealth-2113340"
                }, 
                "text": {
                    "div": "<div xmlns=\"http://www.w3.org/1999/xhtml\">Dispensed 30 tablets = 30 day supply of Lisinopril 5 MG Oral Tablet</div>", 
                    "status": "generated"
                }, 
                "whenHandedOver": "2009-07-08"
            }
        }, 
        {
            "request": {
                "method": "PUT", 
                "url": "MedicationDispense/ehealth-MedicationDispense-334"
            }, 
            "resource": {
                "authorizingPrescription": [
                    {
                        "reference": "MedicationRequest/ehealth-MedicationRequest-227"
                    }
                ], 
                "daysSupply": {
                    "code": "d", 
                    "system": "http://unitsofmeasure.org", 
                    "unit": "days", 
                    "value": 30
                }, 
                "id": "ehealth-MedicationDispense-334", 
                "medicationCodeableConcept": {
                    "coding": [
                        {
                            "code": "311354", 
                            "display": "Lisinopril 5 MG Oral Tablet", 
                            "system": "http://www.nlm.nih.gov/research/umls/rxnorm"
                        }
                    ], 
                    "text": "Lisinopril 5 MG Oral Tablet"
                }, 
                "quantity": {
                    "code": "{tablets}", 
                    "system": "http://unitsofmeasure.org", 
                    "unit": "tablets", 
                    "value": 30.0
                }, 
                "resourceType": "MedicationDispense", 
                "status": "completed", 
                "subject": {
                    "reference": "Patient/ehealth-2113340"
                }, 
                "text": {
                    "div": "<div xmlns=\"http://www.w3.org/1999/xhtml\">Dispensed 30 tablets = 30 day supply of Lisinopril 5 MG Oral Tablet</div>", 
                    "status": "generated"
                }, 
                "whenHandedOver": "2009-06-08"
            }
        }, 
        {
            "request": {
                "method": "PUT", 
                "url": "MedicationRequest/ehealth-MedicationRequest-228"
            }, 
            "resource": {
                "dispenseRequest": {
                    "expectedSupplyDuration": {
                        "code": "d", 
                        "system": "http://unitsofmeasure.org", 
                        "unit": "days", 
                        "value": 30
                    }, 
                    "numberOfRepeatsAllowed": 1, 
                    "quantity": {
                        "code": "{tablet}", 
                        "system": "http://unitsofmeasure.org", 
                        "unit": "{tablet}", 
                        "value": 60.0
                    }
                }, 
                "dosageInstruction": [
                    {
                        "doseQuantity": {
                            "code": "{tablet}", 
                            "system": "http://unitsofmeasure.org", 
                            "unit": "{tablet}", 
                            "value": 1.0
                        }, 
                        "text": "1 daily", 
                        "timing": {
                            "repeat": {
                                "boundsPeriod": {
                                    "start": "2009-04-09"
                                }, 
                                "frequency": 1, 
                                "period": 1, 
                                "periodUnit": "d"
                            }
                        }
                    }
                ], 
                "id": "ehealth-MedicationRequest-228", 
                "intent": "order", 
                "medicationCodeableConcept": {
                    "coding": [
                        {
                            "code": "686924", 
                            "display": "carvedilol 3.13 MG Oral Tablet", 
                            "system": "http://www.nlm.nih.gov/research/umls/rxnorm"
                        }
                    ], 
                    "text": "carvedilol 3.13 MG Oral Tablet"
                }, 
                "resourceType": "MedicationRequest", 
                "status": "active", 
                "subject": {
                    "reference": "Patient/ehealth-2113340"
                }, 
                "text": {
                    "div": "<div xmlns=\"http://www.w3.org/1999/xhtml\">carvedilol 3.13 MG Oral Tablet (rxnorm: 686924)</div>", 
                    "status": "generated"
                }
            }
        }, 
        {
            "request": {
                "method": "PUT", 
                "url": "MedicationDispense/ehealth-MedicationDispense-321"
            }, 
            "resource": {
                "authorizingPrescription": [
                    {
                        "reference": "MedicationRequest/ehealth-MedicationRequest-228"
                    }
                ], 
                "daysSupply": {
                    "code": "d", 
                    "system": "http://unitsofmeasure.org", 
                    "unit": "days", 
                    "value": 30
                }, 
                "id": "ehealth-MedicationDispense-321", 
                "medicationCodeableConcept": {
                    "coding": [
                        {
                            "code": "686924", 
                            "display": "carvedilol 3.13 MG Oral Tablet", 
                            "system": "http://www.nlm.nih.gov/research/umls/rxnorm"
                        }
                    ], 
                    "text": "carvedilol 3.13 MG Oral Tablet"
                }, 
                "quantity": {
                    "code": "{tablets}", 
                    "system": "http://unitsofmeasure.org", 
                    "unit": "tablets", 
                    "value": 60.0
                }, 
                "resourceType": "MedicationDispense", 
                "status": "completed", 
                "subject": {
                    "reference": "Patient/ehealth-2113340"
                }, 
                "text": {
                    "div": "<div xmlns=\"http://www.w3.org/1999/xhtml\">Dispensed 60 tablets = 30 day supply of carvedilol 3.13 MG Oral Tablet</div>", 
                    "status": "generated"
                }, 
                "whenHandedOver": "2009-06-08"
            }
        }, 
        {
            "request": {
                "method": "PUT", 
                "url": "MedicationDispense/ehealth-MedicationDispense-324"
            }, 
            "resource": {
                "authorizingPrescription": [
                    {
                        "reference": "MedicationRequest/ehealth-MedicationRequest-228"
                    }
                ], 
                "daysSupply": {
                    "code": "d", 
                    "system": "http://unitsofmeasure.org", 
                    "unit": "days", 
                    "value": 30
                }, 
                "id": "ehealth-MedicationDispense-324", 
                "medicationCodeableConcept": {
                    "coding": [
                        {
                            "code": "686924", 
                            "display": "carvedilol 3.13 MG Oral Tablet", 
                            "system": "http://www.nlm.nih.gov/research/umls/rxnorm"
                        }
                    ], 
                    "text": "carvedilol 3.13 MG Oral Tablet"
                }, 
                "quantity": {
                    "code": "{tablets}", 
                    "system": "http://unitsofmeasure.org", 
                    "unit": "tablets", 
                    "value": 60.0
                }, 
                "resourceType": "MedicationDispense", 
                "status": "completed", 
                "subject": {
                    "reference": "Patient/ehealth-2113340"
                }, 
                "text": {
                    "div": "<div xmlns=\"http://www.w3.org/1999/xhtml\">Dispensed 60 tablets = 30 day supply of carvedilol 3.13 MG Oral Tablet</div>", 
                    "status": "generated"
                }, 
                "whenHandedOver": "2009-09-05"
            }
        }, 
        {
            "request": {
                "method": "PUT", 
                "url": "MedicationDispense/ehealth-MedicationDispense-319"
            }, 
            "resource": {
                "authorizingPrescription": [
                    {
                        "reference": "MedicationRequest/ehealth-MedicationRequest-228"
                    }
                ], 
                "daysSupply": {
                    "code": "d", 
                    "system": "http://unitsofmeasure.org", 
                    "unit": "days", 
                    "value": 30
                }, 
                "id": "ehealth-MedicationDispense-319", 
                "medicationCodeableConcept": {
                    "coding": [
                        {
                            "code": "686924", 
                            "display": "carvedilol 3.13 MG Oral Tablet", 
                            "system": "http://www.nlm.nih.gov/research/umls/rxnorm"
                        }
                    ], 
                    "text": "carvedilol 3.13 MG Oral Tablet"
                }, 
                "quantity": {
                    "code": "{tablets}", 
                    "system": "http://unitsofmeasure.org", 
                    "unit": "tablets", 
                    "value": 60.0
                }, 
                "resourceType": "MedicationDispense", 
                "status": "completed", 
                "subject": {
                    "reference": "Patient/ehealth-2113340"
                }, 
                "text": {
                    "div": "<div xmlns=\"http://www.w3.org/1999/xhtml\">Dispensed 60 tablets = 30 day supply of carvedilol 3.13 MG Oral Tablet</div>", 
                    "status": "generated"
                }, 
                "whenHandedOver": "2009-04-09"
            }
        }, 
        {
            "request": {
                "method": "PUT", 
                "url": "MedicationDispense/ehealth-MedicationDispense-322"
            }, 
            "resource": {
                "authorizingPrescription": [
                    {
                        "reference": "MedicationRequest/ehealth-MedicationRequest-228"
                    }
                ], 
                "daysSupply": {
                    "code": "d", 
                    "system": "http://unitsofmeasure.org", 
                    "unit": "days", 
                    "value": 30
                }, 
                "id": "ehealth-MedicationDispense-322", 
                "medicationCodeableConcept": {
                    "coding": [
                        {
                            "code": "686924", 
                            "display": "carvedilol 3.13 MG Oral Tablet", 
                            "system": "http://www.nlm.nih.gov/research/umls/rxnorm"
                        }
                    ], 
                    "text": "carvedilol 3.13 MG Oral Tablet"
                }, 
                "quantity": {
                    "code": "{tablets}", 
                    "system": "http://unitsofmeasure.org", 
                    "unit": "tablets", 
                    "value": 60.0
                }, 
                "resourceType": "MedicationDispense", 
                "status": "completed", 
                "subject": {
                    "reference": "Patient/ehealth-2113340"
                }, 
                "text": {
                    "div": "<div xmlns=\"http://www.w3.org/1999/xhtml\">Dispensed 60 tablets = 30 day supply of carvedilol 3.13 MG Oral Tablet</div>", 
                    "status": "generated"
                }, 
                "whenHandedOver": "2009-07-08"
            }
        }, 
        {
            "request": {
                "method": "PUT", 
                "url": "MedicationDispense/ehealth-MedicationDispense-320"
            }, 
            "resource": {
                "authorizingPrescription": [
                    {
                        "reference": "MedicationRequest/ehealth-MedicationRequest-228"
                    }
                ], 
                "daysSupply": {
                    "code": "d", 
                    "system": "http://unitsofmeasure.org", 
                    "unit": "days", 
                    "value": 30
                }, 
                "id": "ehealth-MedicationDispense-320", 
                "medicationCodeableConcept": {
                    "coding": [
                        {
                            "code": "686924", 
                            "display": "carvedilol 3.13 MG Oral Tablet", 
                            "system": "http://www.nlm.nih.gov/research/umls/rxnorm"
                        }
                    ], 
                    "text": "carvedilol 3.13 MG Oral Tablet"
                }, 
                "quantity": {
                    "code": "{tablets}", 
                    "system": "http://unitsofmeasure.org", 
                    "unit": "tablets", 
                    "value": 60.0
                }, 
                "resourceType": "MedicationDispense", 
                "status": "completed", 
                "subject": {
                    "reference": "Patient/ehealth-2113340"
                }, 
                "text": {
                    "div": "<div xmlns=\"http://www.w3.org/1999/xhtml\">Dispensed 60 tablets = 30 day supply of carvedilol 3.13 MG Oral Tablet</div>", 
                    "status": "generated"
                }, 
                "whenHandedOver": "2009-05-09"
            }
        }, 
        {
            "request": {
                "method": "PUT", 
                "url": "MedicationDispense/ehealth-MedicationDispense-323"
            }, 
            "resource": {
                "authorizingPrescription": [
                    {
                        "reference": "MedicationRequest/ehealth-MedicationRequest-228"
                    }
                ], 
                "daysSupply": {
                    "code": "d", 
                    "system": "http://unitsofmeasure.org", 
                    "unit": "days", 
                    "value": 30
                }, 
                "id": "ehealth-MedicationDispense-323", 
                "medicationCodeableConcept": {
                    "coding": [
                        {
                            "code": "686924", 
                            "display": "carvedilol 3.13 MG Oral Tablet", 
                            "system": "http://www.nlm.nih.gov/research/umls/rxnorm"
                        }
                    ], 
                    "text": "carvedilol 3.13 MG Oral Tablet"
                }, 
                "quantity": {
                    "code": "{tablets}", 
                    "system": "http://unitsofmeasure.org", 
                    "unit": "tablets", 
                    "value": 60.0
                }, 
                "resourceType": "MedicationDispense", 
                "status": "completed", 
                "subject": {
                    "reference": "Patient/ehealth-2113340"
                }, 
                "text": {
                    "div": "<div xmlns=\"http://www.w3.org/1999/xhtml\">Dispensed 60 tablets = 30 day supply of carvedilol 3.13 MG Oral Tablet</div>", 
                    "status": "generated"
                }, 
                "whenHandedOver": "2009-08-05"
            }
        }, 
        {
            "request": {
                "method": "PUT", 
                "url": "MedicationRequest/ehealth-MedicationRequest-229"
            }, 
            "resource": {
                "dispenseRequest": {
                    "expectedSupplyDuration": {
                        "code": "d", 
                        "system": "http://unitsofmeasure.org", 
                        "unit": "days", 
                        "value": 7
                    }, 
                    "numberOfRepeatsAllowed": 1, 
                    "quantity": {
                        "code": "{tablet}", 
                        "system": "http://unitsofmeasure.org", 
                        "unit": "{tablet}", 
                        "value": 14.0
                    }
                }, 
                "dosageInstruction": [
                    {
                        "doseQuantity": {
                            "code": "{tablet}", 
                            "system": "http://unitsofmeasure.org", 
                            "unit": "{tablet}", 
                            "value": 1.0
                        }, 
                        "text": "1 tid x7 days", 
                        "timing": {
                            "repeat": {
                                "boundsPeriod": {
                                    "start": "2009-09-06"
                                }, 
                                "frequency": 3, 
                                "period": 1, 
                                "periodUnit": "d"
                            }
                        }
                    }
                ], 
                "id": "ehealth-MedicationRequest-229", 
                "intent": "order", 
                "medicationCodeableConcept": {
                    "coding": [
                        {
                            "code": "311681", 
                            "display": "Metronidazole 500 MG Oral Tablet", 
                            "system": "http://www.nlm.nih.gov/research/umls/rxnorm"
                        }
                    ], 
                    "text": "Metronidazole 500 MG Oral Tablet"
                }, 
                "resourceType": "MedicationRequest", 
                "status": "active", 
                "subject": {
                    "reference": "Patient/ehealth-2113340"
                }, 
                "text": {
                    "div": "<div xmlns=\"http://www.w3.org/1999/xhtml\">Metronidazole 500 MG Oral Tablet (rxnorm: 311681)</div>", 
                    "status": "generated"
                }
            }
        }, 
        {
            "request": {
                "method": "PUT", 
                "url": "MedicationDispense/ehealth-MedicationDispense-317"
            }, 
            "resource": {
                "authorizingPrescription": [
                    {
                        "reference": "MedicationRequest/ehealth-MedicationRequest-229"
                    }
                ], 
                "daysSupply": {
                    "code": "d", 
                    "system": "http://unitsofmeasure.org", 
                    "unit": "days", 
                    "value": 7
                }, 
                "id": "ehealth-MedicationDispense-317", 
                "medicationCodeableConcept": {
                    "coding": [
                        {
                            "code": "311681", 
                            "display": "Metronidazole 500 MG Oral Tablet", 
                            "system": "http://www.nlm.nih.gov/research/umls/rxnorm"
                        }
                    ], 
                    "text": "Metronidazole 500 MG Oral Tablet"
                }, 
                "quantity": {
                    "code": "{tablets}", 
                    "system": "http://unitsofmeasure.org", 
                    "unit": "tablets", 
                    "value": 14.0
                }, 
                "resourceType": "MedicationDispense", 
                "status": "completed", 
                "subject": {
                    "reference": "Patient/ehealth-2113340"
                }, 
                "text": {
                    "div": "<div xmlns=\"http://www.w3.org/1999/xhtml\">Dispensed 14 tablets = 7 day supply of Metronidazole 500 MG Oral Tablet</div>", 
                    "status": "generated"
                }, 
                "whenHandedOver": "2009-09-06"
            }
        }, 
        {
            "request": {
                "method": "PUT", 
                "url": "MedicationRequest/ehealth-MedicationRequest-230"
            }, 
            "resource": {
                "dispenseRequest": {
                    "expectedSupplyDuration": {
                        "code": "d", 
                        "system": "http://unitsofmeasure.org", 
                        "unit": "days", 
                        "value": 30
                    }, 
                    "numberOfRepeatsAllowed": 1
                }, 
                "dosageInstruction": [
                    {
                        "text": "apply bid to affected area", 
                        "timing": {
                            "repeat": {
                                "boundsPeriod": {
                                    "start": "2009-09-07"
                                }, 
                                "frequency": 2, 
                                "period": 1, 
                                "periodUnit": "d"
                            }
                        }
                    }
                ], 
                "id": "ehealth-MedicationRequest-230", 
                "intent": "order", 
                "medicationCodeableConcept": {
                    "coding": [
                        {
                            "code": "198342", 
                            "display": "Urea 400 MG/ML Topical Cream", 
                            "system": "http://www.nlm.nih.gov/research/umls/rxnorm"
                        }
                    ], 
                    "text": "Urea 400 MG/ML Topical Cream"
                }, 
                "resourceType": "MedicationRequest", 
                "status": "active", 
                "subject": {
                    "reference": "Patient/ehealth-2113340"
                }, 
                "text": {
                    "div": "<div xmlns=\"http://www.w3.org/1999/xhtml\">Urea 400 MG/ML Topical Cream (rxnorm: 198342)</div>", 
                    "status": "generated"
                }
            }
        }, 
        {
            "request": {
                "method": "PUT", 
                "url": "MedicationDispense/ehealth-MedicationDispense-316"
            }, 
            "resource": {
                "authorizingPrescription": [
                    {
                        "reference": "MedicationRequest/ehealth-MedicationRequest-230"
                    }
                ], 
                "daysSupply": {
                    "code": "d", 
                    "system": "http://unitsofmeasure.org", 
                    "unit": "days", 
                    "value": 20
                }, 
                "id": "ehealth-MedicationDispense-316", 
                "medicationCodeableConcept": {
                    "coding": [
                        {
                            "code": "198342", 
                            "display": "Urea 400 MG/ML Topical Cream", 
                            "system": "http://www.nlm.nih.gov/research/umls/rxnorm"
                        }
                    ], 
                    "text": "Urea 400 MG/ML Topical Cream"
                }, 
                "quantity": {
                    "code": "{tablets}", 
                    "system": "http://unitsofmeasure.org", 
                    "unit": "tablets", 
                    "value": 85.0
                }, 
                "resourceType": "MedicationDispense", 
                "status": "completed", 
                "subject": {
                    "reference": "Patient/ehealth-2113340"
                }, 
                "text": {
                    "div": "<div xmlns=\"http://www.w3.org/1999/xhtml\">Dispensed 85 tablets = 20 day supply of Urea 400 MG/ML Topical Cream</div>", 
                    "status": "generated"
                }, 
                "whenHandedOver": "2009-09-07"
            }
        }, 
        {
            "request": {
                "method": "PUT", 
                "url": "MedicationRequest/ehealth-MedicationRequest-231"
            }, 
            "resource": {
                "dispenseRequest": {
                    "expectedSupplyDuration": {
                        "code": "d", 
                        "system": "http://unitsofmeasure.org", 
                        "unit": "days", 
                        "value": 14
                    }, 
                    "numberOfRepeatsAllowed": 1
                }, 
                "dosageInstruction": [
                    {
                        "text": "apply bid to affected area", 
                        "timing": {
                            "repeat": {
                                "boundsPeriod": {
                                    "start": "2009-09-07"
                                }, 
                                "frequency": 2, 
                                "period": 1, 
                                "periodUnit": "d"
                            }
                        }
                    }
                ], 
                "id": "ehealth-MedicationRequest-231", 
                "intent": "order", 
                "medicationCodeableConcept": {
                    "coding": [
                        {
                            "code": "204135", 
                            "display": "Desonide 0.0005 MG/MG Topical Ointment", 
                            "system": "http://www.nlm.nih.gov/research/umls/rxnorm"
                        }
                    ], 
                    "text": "Desonide 0.0005 MG/MG Topical Ointment"
                }, 
                "resourceType": "MedicationRequest", 
                "status": "active", 
                "subject": {
                    "reference": "Patient/ehealth-2113340"
                }, 
                "text": {
                    "div": "<div xmlns=\"http://www.w3.org/1999/xhtml\">Desonide 0.0005 MG/MG Topical Ointment (rxnorm: 204135)</div>", 
                    "status": "generated"
                }
            }
        }, 
        {
            "request": {
                "method": "PUT", 
                "url": "MedicationDispense/ehealth-MedicationDispense-318"
            }, 
            "resource": {
                "authorizingPrescription": [
                    {
                        "reference": "MedicationRequest/ehealth-MedicationRequest-231"
                    }
                ], 
                "daysSupply": {
                    "code": "d", 
                    "system": "http://unitsofmeasure.org", 
                    "unit": "days", 
                    "value": 14
                }, 
                "id": "ehealth-MedicationDispense-318", 
                "medicationCodeableConcept": {
                    "coding": [
                        {
                            "code": "204135", 
                            "display": "Desonide 0.0005 MG/MG Topical Ointment", 
                            "system": "http://www.nlm.nih.gov/research/umls/rxnorm"
                        }
                    ], 
                    "text": "Desonide 0.0005 MG/MG Topical Ointment"
                }, 
                "quantity": {
                    "code": "{tablets}", 
                    "system": "http://unitsofmeasure.org", 
                    "unit": "tablets", 
                    "value": 60.0
                }, 
                "resourceType": "MedicationDispense", 
                "status": "completed", 
                "subject": {
                    "reference": "Patient/ehealth-2113340"
                }, 
                "text": {
                    "div": "<div xmlns=\"http://www.w3.org/1999/xhtml\">Dispensed 60 tablets = 14 day supply of Desonide 0.0005 MG/MG Topical Ointment</div>", 
                    "status": "generated"
                }, 
                "whenHandedOver": "2009-09-07"
            }
        }, 
        {
            "request": {
                "method": "PUT", 
                "url": "Condition/ehealth-Condition-178"
            }, 
            "resource": {
                "clinicalStatus": "active", 
                "code": {
                    "coding": [
                        {
                            "code": "84229001", 
                            "display": "Malaise and fatigue", 
                            "system": "http://snomed.info/sct"
                        }
                    ], 
                    "text": "Malaise and fatigue"
                }, 
                "id": "ehealth-Condition-178", 
                "onsetDateTime": "2006-02-14", 
                "resourceType": "Condition", 
                "subject": {
                    "reference": "Patient/ehealth-2113340"
                }, 
                "text": {
                    "div": "<div xmlns=\"http://www.w3.org/1999/xhtml\">Malaise and fatigue</div>", 
                    "status": "generated"
                }, 
                "verificationStatus": "confirmed"
            }
        }, 
        {
            "request": {
                "method": "PUT", 
                "url": "Condition/ehealth-Condition-179"
            }, 
            "resource": {
                "clinicalStatus": "active", 
                "code": {
                    "coding": [
                        {
                            "code": "34840004", 
                            "display": "Enthesopathy", 
                            "system": "http://snomed.info/sct"
                        }
                    ], 
                    "text": "Enthesopathy"
                }, 
                "id": "ehealth-Condition-179", 
                "onsetDateTime": "2006-08-15", 
                "resourceType": "Condition", 
                "subject": {
                    "reference": "Patient/ehealth-2113340"
                }, 
                "text": {
                    "div": "<div xmlns=\"http://www.w3.org/1999/xhtml\">Enthesopathy</div>", 
                    "status": "generated"
                }, 
                "verificationStatus": "confirmed"
            }
        }, 
        {
            "request": {
                "method": "PUT", 
                "url": "Condition/ehealth-Condition-180"
            }, 
            "resource": {
                "clinicalStatus": "active", 
                "code": {
                    "coding": [
                        {
                            "code": "44054006", 
                            "display": "Diabetes mellitus type 2", 
                            "system": "http://snomed.info/sct"
                        }
                    ], 
                    "text": "Diabetes mellitus type 2"
                }, 
                "id": "ehealth-Condition-180", 
                "onsetDateTime": "2007-05-13", 
                "resourceType": "Condition", 
                "subject": {
                    "reference": "Patient/ehealth-2113340"
                }, 
                "text": {
                    "div": "<div xmlns=\"http://www.w3.org/1999/xhtml\">Diabetes mellitus type 2</div>", 
                    "status": "generated"
                }, 
                "verificationStatus": "confirmed"
            }
        }, 
        {
            "request": {
                "method": "PUT", 
                "url": "Condition/ehealth-Condition-181"
            }, 
            "resource": {
                "clinicalStatus": "active", 
                "code": {
                    "coding": [
                        {
                            "code": "55822004", 
                            "display": "Hyperlipidemia", 
                            "system": "http://snomed.info/sct"
                        }
                    ], 
                    "text": "Hyperlipidemia"
                }, 
                "id": "ehealth-Condition-181", 
                "onsetDateTime": "2007-08-25", 
                "resourceType": "Condition", 
                "subject": {
                    "reference": "Patient/ehealth-2113340"
                }, 
                "text": {
                    "div": "<div xmlns=\"http://www.w3.org/1999/xhtml\">Hyperlipidemia</div>", 
                    "status": "generated"
                }, 
                "verificationStatus": "confirmed"
            }
        }, 
        {
            "request": {
                "method": "PUT", 
                "url": "Condition/ehealth-Condition-182"
            }, 
            "resource": {
                "clinicalStatus": "active", 
                "code": {
                    "coding": [
                        {
                            "code": "22298006", 
                            "display": "Acute myocardial infarction", 
                            "system": "http://snomed.info/sct"
                        }
                    ], 
                    "text": "Acute myocardial infarction"
                }, 
                "id": "ehealth-Condition-182", 
                "onsetDateTime": "2009-03-08", 
                "resourceType": "Condition", 
                "subject": {
                    "reference": "Patient/ehealth-2113340"
                }, 
                "text": {
                    "div": "<div xmlns=\"http://www.w3.org/1999/xhtml\">Acute myocardial infarction</div>", 
                    "status": "generated"
                }, 
                "verificationStatus": "confirmed"
            }
        }, 
        {
            "request": {
                "method": "PUT", 
                "url": "Condition/ehealth-Condition-183"
            }, 
            "resource": {
                "clinicalStatus": "active", 
                "code": {
                    "coding": [
                        {
                            "code": "71884009", 
                            "display": "Precordial pain", 
                            "system": "http://snomed.info/sct"
                        }
                    ], 
                    "text": "Precordial pain"
                }, 
                "id": "ehealth-Condition-183", 
                "onsetDateTime": "2009-03-08", 
                "resourceType": "Condition", 
                "subject": {
                    "reference": "Patient/ehealth-2113340"
                }, 
                "text": {
                    "div": "<div xmlns=\"http://www.w3.org/1999/xhtml\">Precordial pain</div>", 
                    "status": "generated"
                }, 
                "verificationStatus": "confirmed"
            }
        }, 
        {
            "request": {
                "method": "PUT", 
                "url": "Observation/ehealth-smokingstatus-35"
            }, 
            "resource": {
                "category": [
                    {
                        "coding": [
                            {
                                "code": "social-history", 
                                "display": "Social History", 
                                "system": "http://hl7.org/fhir/observation-category"
                            }
                        ], 
                        "text": "Social History"
                    }
                ], 
                "code": {
                    "coding": [
                        {
                            "code": "72166-2", 
                            "display": "Tobacco smoking status", 
                            "system": "http://loinc.org"
                        }
                    ], 
                    "text": "Tobacco smoking status"
                }, 
                "effectiveDateTime": "2016-09-12", 
                "id": "ehealth-smokingstatus-35", 
                "identifier": [
                    {
                        "system": "http://www.bmc.nl/zorgportal/identifiers/observations", 
                        "use": "official", 
                        "value": "ehealth-35"
                    }
                ], 
                "performer": [
                    {
                        "reference": "Practitioner/ehealth-Practitioner-71482713"
                    }
                ], 
                "resourceType": "Observation", 
                "status": "final", 
                "subject": {
                    "reference": "Patient/ehealth-2113340"
                }, 
                "text": {
                    "div": "<div xmlns=\"http://www.w3.org/1999/xhtml\">Tobacco smoking status: Former smoker</div>", 
                    "status": "generated"
                }, 
                "valueCodeableConcept": {
                    "coding": [
                        {
                            "code": "8517006", 
                            "display": "Former smoker", 
                            "system": "http://snomed.info/sct"
                        }
                    ], 
                    "text": "Former smoker"
                }
            }
        }, 
        {
            "request": {
                "method": "PUT", 
                "url": "AllergyIntolerance/ehealth-AllergyIntolerance-49"
            }, 
            "resource": {
                "assertedDate": "2000", 
                "clinicalStatus": "active", 
                "code": {
                    "coding": [
                        {
                            "code": "716186003", 
                            "display": "No known allergies", 
                            "system": "http://snomed.info/sct"
                        }
                    ], 
                    "text": "No known allergies"
                }, 
                "id": "ehealth-AllergyIntolerance-49", 
                "patient": {
                    "reference": "Patient/ehealth-2113340"
                }, 
                "resourceType": "AllergyIntolerance", 
                "text": {
                    "div": "<div xmlns=\"http://www.w3.org/1999/xhtml\">No known allergies</div>", 
                    "status": "generated"
                }, 
                "verificationStatus": "confirmed"
            }
        }
    ], 
    "resourceType": "Bundle", 
    "type": "transaction"
}
