{
    "entry": [
        {
            "request": {
                "method": "PUT", 
                "url": "Patient/ehealth-1134281"
            }, 
            "resource": {
                "active": true, 
                "address": [
                    {
                        "city": "Bixby", 
                        "country": "USA", 
                        "line": [
                            "24 Pine Rd"
                        ], 
                        "postalCode": "74008", 
                        "state": "OK", 
                        "use": "home"
                    }
                ], 
                "birthDate": "2004-10-15", 
                "gender": "male", 
                "generalPractitioner": [
                    {
                        "reference": "Practitioner/ehealth-Practitioner-71482713"
                    }
                ], 
                "id": "ehealth-1134281", 
                "identifier": [
                    {
                        "system": "http://hospital.smarthealthit.org", 
                        "type": {
                            "coding": [
                                {
                                    "code": "MR", 
                                    "display": "Medical Record Number", 
                                    "system": "http://hl7.org/fhir/v2/0203"
                                }
                            ], 
                            "text": "Medical Record Number"
                        }, 
                        "use": "official", 
                        "value": "ehealth-1134281"
                    }
                ], 
                "name": [
                    {
                        "family": "Taylor", 
                        "given": [
                            "Patrick", 
                            "G"
                        ], 
                        "use": "official"
                    }
                ], 
                "resourceType": "Patient", 
                "telecom": [
                    {
                        "system": "phone", 
                        "use": "home", 
                        "value": "800-539-3986"
                    }, 
                    {
                        "system": "email", 
                        "value": "patrick.taylor@example.com"
                    }
                ], 
                "text": {
                    "div": "<div xmlns=\"http://www.w3.org/1999/xhtml\">Patrick Taylor</div>", 
                    "status": "generated"
                }
            }
        }, 
        {
            "request": {
                "method": "PUT", 
                "url": "Observation/ehealth-1681-lab"
            }, 
            "resource": {
                "category": [
                    {
                        "coding": [
                            {
                                "code": "laboratory", 
                                "display": "Laboratory", 
                                "system": "http://hl7.org/fhir/observation-category"
                            }
                        ], 
                        "text": "Laboratory"
                    }
                ], 
                "code": {
                    "coding": [
                        {
                            "code": "11555-0", 
                            "display": "Base excess Bld-sCnc", 
                            "system": "http://loinc.org"
                        }
                    ], 
                    "text": "Base excess Bld-sCnc"
                }, 
                "effectiveDateTime": "2005-07-04", 
                "id": "ehealth-1681-lab", 
                "identifier": [
                    {
                        "system": "http://www.bmc.nl/zorgportal/identifiers/observations", 
                        "use": "official", 
                        "value": "ehealth-1681-lab"
                    }
                ], 
                "performer": [
                    {
                        "reference": "Practitioner/ehealth-Practitioner-71482713"
                    }
                ], 
                "referenceRange": [
                    {
                        "high": {
                            "code": "mmol/L", 
                            "system": "http://unitsofmeasure.org", 
                            "unit": "mmol/L", 
                            "value": 0.0
                        }, 
                        "low": {
                            "code": "mmol/L", 
                            "system": "http://unitsofmeasure.org", 
                            "unit": "mmol/L", 
                            "value": 0.0
                        }, 
                        "type": {
                            "coding": [
                                {
                                    "code": "normal", 
                                    "display": "Normal Range", 
                                    "system": "http://hl7.org/fhir/referencerange-meaning"
                                }
                            ], 
                            "text": "Normal Range"
                        }
                    }
                ], 
                "resourceType": "Observation", 
                "status": "unknown", 
                "subject": {
                    "reference": "Patient/ehealth-1134281"
                }, 
                "text": {
                    "div": "<div xmlns=\"http://www.w3.org/1999/xhtml\">2005-07-04: Base excess Bld-sCnc = -6 mmol/L</div>", 
                    "status": "generated"
                }, 
                "valueQuantity": {
                    "code": "mmol/L", 
                    "system": "http://unitsofmeasure.org", 
                    "unit": "mmol/L", 
                    "value": -6.0
                }
            }
        }, 
        {
            "request": {
                "method": "PUT", 
                "url": "Observation/ehealth-1682-lab"
            }, 
            "resource": {
                "category": [
                    {
                        "coding": [
                            {
                                "code": "laboratory", 
                                "display": "Laboratory", 
                                "system": "http://hl7.org/fhir/observation-category"
                            }
                        ], 
                        "text": "Laboratory"
                    }
                ], 
                "code": {
                    "coding": [
                        {
                            "code": "20565-8", 
                            "display": "CO2 Bld-sCnc", 
                            "system": "http://loinc.org"
                        }
                    ], 
                    "text": "CO2 Bld-sCnc"
                }, 
                "effectiveDateTime": "2005-07-04", 
                "id": "ehealth-1682-lab", 
                "identifier": [
                    {
                        "system": "http://www.bmc.nl/zorgportal/identifiers/observations", 
                        "use": "official", 
                        "value": "ehealth-1682-lab"
                    }
                ], 
                "performer": [
                    {
                        "reference": "Practitioner/ehealth-Practitioner-71482713"
                    }
                ], 
                "referenceRange": [
                    {
                        "high": {
                            "code": "mmol/L", 
                            "system": "http://unitsofmeasure.org", 
                            "unit": "mmol/L", 
                            "value": 29.0
                        }, 
                        "low": {
                            "code": "mmol/L", 
                            "system": "http://unitsofmeasure.org", 
                            "unit": "mmol/L", 
                            "value": 22.0
                        }, 
                        "type": {
                            "coding": [
                                {
                                    "code": "normal", 
                                    "display": "Normal Range", 
                                    "system": "http://hl7.org/fhir/referencerange-meaning"
                                }
                            ], 
                            "text": "Normal Range"
                        }
                    }
                ], 
                "resourceType": "Observation", 
                "status": "unknown", 
                "subject": {
                    "reference": "Patient/ehealth-1134281"
                }, 
                "text": {
                    "div": "<div xmlns=\"http://www.w3.org/1999/xhtml\">2005-07-04: CO2 Bld-sCnc = 24 mmol/L</div>", 
                    "status": "generated"
                }, 
                "valueQuantity": {
                    "code": "mmol/L", 
                    "system": "http://unitsofmeasure.org", 
                    "unit": "mmol/L", 
                    "value": 24.0
                }
            }
        }, 
        {
            "request": {
                "method": "PUT", 
                "url": "Observation/ehealth-1683-lab"
            }, 
            "resource": {
                "category": [
                    {
                        "coding": [
                            {
                                "code": "laboratory", 
                                "display": "Laboratory", 
                                "system": "http://hl7.org/fhir/observation-category"
                            }
                        ], 
                        "text": "Laboratory"
                    }
                ], 
                "code": {
                    "coding": [
                        {
                            "code": "2713-6", 
                            "display": "SaO2% from pO2 Bld", 
                            "system": "http://loinc.org"
                        }
                    ], 
                    "text": "SaO2% from pO2 Bld"
                }, 
                "effectiveDateTime": "2005-07-04", 
                "id": "ehealth-1683-lab", 
                "identifier": [
                    {
                        "system": "http://www.bmc.nl/zorgportal/identifiers/observations", 
                        "use": "official", 
                        "value": "ehealth-1683-lab"
                    }
                ], 
                "performer": [
                    {
                        "reference": "Practitioner/ehealth-Practitioner-71482713"
                    }
                ], 
                "referenceRange": [
                    {
                        "high": {
                            "code": "%", 
                            "system": "http://unitsofmeasure.org", 
                            "unit": "%", 
                            "value": 98.0
                        }, 
                        "low": {
                            "code": "%", 
                            "system": "http://unitsofmeasure.org", 
                            "unit": "%", 
                            "value": 95.0
                        }, 
                        "type": {
                            "coding": [
                                {
                                    "code": "normal", 
                                    "display": "Normal Range", 
                                    "system": "http://hl7.org/fhir/referencerange-meaning"
                                }
                            ], 
                            "text": "Normal Range"
                        }
                    }
                ], 
                "resourceType": "Observation", 
                "status": "unknown", 
                "subject": {
                    "reference": "Patient/ehealth-1134281"
                }, 
                "text": {
                    "div": "<div xmlns=\"http://www.w3.org/1999/xhtml\">2005-07-04: SaO2% from pO2 Bld = 92 %</div>", 
                    "status": "generated"
                }, 
                "valueQuantity": {
                    "code": "%", 
                    "system": "http://unitsofmeasure.org", 
                    "unit": "%", 
                    "value": 92.0
                }
            }
        }, 
        {
            "request": {
                "method": "PUT", 
                "url": "Observation/ehealth-1684-lab"
            }, 
            "resource": {
                "category": [
                    {
                        "coding": [
                            {
                                "code": "laboratory", 
                                "display": "Laboratory", 
                                "system": "http://hl7.org/fhir/observation-category"
                            }
                        ], 
                        "text": "Laboratory"
                    }
                ], 
                "code": {
                    "coding": [
                        {
                            "code": "2713-6", 
                            "display": "SaO2% from pO2 Bld", 
                            "system": "http://loinc.org"
                        }
                    ], 
                    "text": "SaO2% from pO2 Bld"
                }, 
                "effectiveDateTime": "2005-07-04", 
                "id": "ehealth-1684-lab", 
                "identifier": [
                    {
                        "system": "http://www.bmc.nl/zorgportal/identifiers/observations", 
                        "use": "official", 
                        "value": "ehealth-1684-lab"
                    }
                ], 
                "performer": [
                    {
                        "reference": "Practitioner/ehealth-Practitioner-71482713"
                    }
                ], 
                "referenceRange": [
                    {
                        "high": {
                            "code": "%", 
                            "system": "http://unitsofmeasure.org", 
                            "unit": "%", 
                            "value": 98.0
                        }, 
                        "low": {
                            "code": "%", 
                            "system": "http://unitsofmeasure.org", 
                            "unit": "%", 
                            "value": 95.0
                        }, 
                        "type": {
                            "coding": [
                                {
                                    "code": "normal", 
                                    "display": "Normal Range", 
                                    "system": "http://hl7.org/fhir/referencerange-meaning"
                                }
                            ], 
                            "text": "Normal Range"
                        }
                    }
                ], 
                "resourceType": "Observation", 
                "status": "unknown", 
                "subject": {
                    "reference": "Patient/ehealth-1134281"
                }, 
                "text": {
                    "div": "<div xmlns=\"http://www.w3.org/1999/xhtml\">2005-07-04: SaO2% from pO2 Bld = 89 %</div>", 
                    "status": "generated"
                }, 
                "valueQuantity": {
                    "code": "%", 
                    "system": "http://unitsofmeasure.org", 
                    "unit": "%", 
                    "value": 89.0
                }
            }
        }, 
        {
            "request": {
                "method": "PUT", 
                "url": "Observation/ehealth-1685-lab"
            }, 
            "resource": {
                "category": [
                    {
                        "coding": [
                            {
                                "code": "laboratory", 
                                "display": "Laboratory", 
                                "system": "http://hl7.org/fhir/observation-category"
                            }
                        ], 
                        "text": "Laboratory"
                    }
                ], 
                "code": {
                    "coding": [
                        {
                            "code": "2339-0", 
                            "display": "Glucose Bld-mCnc", 
                            "system": "http://loinc.org"
                        }
                    ], 
                    "text": "Glucose Bld-mCnc"
                }, 
                "effectiveDateTime": "2005-07-04", 
                "id": "ehealth-1685-lab", 
                "identifier": [
                    {
                        "system": "http://www.bmc.nl/zorgportal/identifiers/observations", 
                        "use": "official", 
                        "value": "ehealth-1685-lab"
                    }
                ], 
                "performer": [
                    {
                        "reference": "Practitioner/ehealth-Practitioner-71482713"
                    }
                ], 
                "referenceRange": [
                    {
                        "high": {
                            "code": "mg/dL", 
                            "system": "http://unitsofmeasure.org", 
                            "unit": "mg/dL", 
                            "value": 109.0
                        }, 
                        "low": {
                            "code": "mg/dL", 
                            "system": "http://unitsofmeasure.org", 
                            "unit": "mg/dL", 
                            "value": 40.0
                        }, 
                        "type": {
                            "coding": [
                                {
                                    "code": "normal", 
                                    "display": "Normal Range", 
                                    "system": "http://hl7.org/fhir/referencerange-meaning"
                                }
                            ], 
                            "text": "Normal Range"
                        }
                    }
                ], 
                "resourceType": "Observation", 
                "status": "unknown", 
                "subject": {
                    "reference": "Patient/ehealth-1134281"
                }, 
                "text": {
                    "div": "<div xmlns=\"http://www.w3.org/1999/xhtml\">2005-07-04: Glucose Bld-mCnc = 71 mg/dL</div>", 
                    "status": "generated"
                }, 
                "valueQuantity": {
                    "code": "mg/dL", 
                    "system": "http://unitsofmeasure.org", 
                    "unit": "mg/dL", 
                    "value": 71.0
                }
            }
        }, 
        {
            "request": {
                "method": "PUT", 
                "url": "Observation/ehealth-1686-lab"
            }, 
            "resource": {
                "category": [
                    {
                        "coding": [
                            {
                                "code": "laboratory", 
                                "display": "Laboratory", 
                                "system": "http://hl7.org/fhir/observation-category"
                            }
                        ], 
                        "text": "Laboratory"
                    }
                ], 
                "code": {
                    "coding": [
                        {
                            "code": "2339-0", 
                            "display": "Glucose Bld-mCnc", 
                            "system": "http://loinc.org"
                        }
                    ], 
                    "text": "Glucose Bld-mCnc"
                }, 
                "effectiveDateTime": "2005-07-04", 
                "id": "ehealth-1686-lab", 
                "identifier": [
                    {
                        "system": "http://www.bmc.nl/zorgportal/identifiers/observations", 
                        "use": "official", 
                        "value": "ehealth-1686-lab"
                    }
                ], 
                "performer": [
                    {
                        "reference": "Practitioner/ehealth-Practitioner-71482713"
                    }
                ], 
                "referenceRange": [
                    {
                        "high": {
                            "code": "mg/dL", 
                            "system": "http://unitsofmeasure.org", 
                            "unit": "mg/dL", 
                            "value": 109.0
                        }, 
                        "low": {
                            "code": "mg/dL", 
                            "system": "http://unitsofmeasure.org", 
                            "unit": "mg/dL", 
                            "value": 40.0
                        }, 
                        "type": {
                            "coding": [
                                {
                                    "code": "normal", 
                                    "display": "Normal Range", 
                                    "system": "http://hl7.org/fhir/referencerange-meaning"
                                }
                            ], 
                            "text": "Normal Range"
                        }
                    }
                ], 
                "resourceType": "Observation", 
                "status": "unknown", 
                "subject": {
                    "reference": "Patient/ehealth-1134281"
                }, 
                "text": {
                    "div": "<div xmlns=\"http://www.w3.org/1999/xhtml\">2005-07-04: Glucose Bld-mCnc = 109 mg/dL</div>", 
                    "status": "generated"
                }, 
                "valueQuantity": {
                    "code": "mg/dL", 
                    "system": "http://unitsofmeasure.org", 
                    "unit": "mg/dL", 
                    "value": 109.0
                }
            }
        }, 
        {
            "request": {
                "method": "PUT", 
                "url": "Observation/ehealth-1687-lab"
            }, 
            "resource": {
                "category": [
                    {
                        "coding": [
                            {
                                "code": "laboratory", 
                                "display": "Laboratory", 
                                "system": "http://hl7.org/fhir/observation-category"
                            }
                        ], 
                        "text": "Laboratory"
                    }
                ], 
                "code": {
                    "coding": [
                        {
                            "code": "11558-4", 
                            "display": "pH Bld", 
                            "system": "http://loinc.org"
                        }
                    ], 
                    "text": "pH Bld"
                }, 
                "effectiveDateTime": "2005-07-04", 
                "id": "ehealth-1687-lab", 
                "identifier": [
                    {
                        "system": "http://www.bmc.nl/zorgportal/identifiers/observations", 
                        "use": "official", 
                        "value": "ehealth-1687-lab"
                    }
                ], 
                "performer": [
                    {
                        "reference": "Practitioner/ehealth-Practitioner-71482713"
                    }
                ], 
                "referenceRange": [
                    {
                        "high": {
                            "code": "[pH]", 
                            "system": "http://unitsofmeasure.org", 
                            "unit": "[pH]", 
                            "value": 7.45
                        }, 
                        "low": {
                            "code": "[pH]", 
                            "system": "http://unitsofmeasure.org", 
                            "unit": "[pH]", 
                            "value": 7.35
                        }, 
                        "type": {
                            "coding": [
                                {
                                    "code": "normal", 
                                    "display": "Normal Range", 
                                    "system": "http://hl7.org/fhir/referencerange-meaning"
                                }
                            ], 
                            "text": "Normal Range"
                        }
                    }
                ], 
                "resourceType": "Observation", 
                "status": "unknown", 
                "subject": {
                    "reference": "Patient/ehealth-1134281"
                }, 
                "text": {
                    "div": "<div xmlns=\"http://www.w3.org/1999/xhtml\">2005-07-04: pH Bld = 7.36 [pH]</div>", 
                    "status": "generated"
                }, 
                "valueQuantity": {
                    "code": "[pH]", 
                    "system": "http://unitsofmeasure.org", 
                    "unit": "[pH]", 
                    "value": 7.36
                }
            }
        }, 
        {
            "request": {
                "method": "PUT", 
                "url": "Observation/ehealth-1688-lab"
            }, 
            "resource": {
                "category": [
                    {
                        "coding": [
                            {
                                "code": "laboratory", 
                                "display": "Laboratory", 
                                "system": "http://hl7.org/fhir/observation-category"
                            }
                        ], 
                        "text": "Laboratory"
                    }
                ], 
                "code": {
                    "coding": [
                        {
                            "code": "11558-4", 
                            "display": "pH Bld", 
                            "system": "http://loinc.org"
                        }
                    ], 
                    "text": "pH Bld"
                }, 
                "effectiveDateTime": "2005-07-04", 
                "id": "ehealth-1688-lab", 
                "identifier": [
                    {
                        "system": "http://www.bmc.nl/zorgportal/identifiers/observations", 
                        "use": "official", 
                        "value": "ehealth-1688-lab"
                    }
                ], 
                "performer": [
                    {
                        "reference": "Practitioner/ehealth-Practitioner-71482713"
                    }
                ], 
                "referenceRange": [
                    {
                        "high": {
                            "code": "[pH]", 
                            "system": "http://unitsofmeasure.org", 
                            "unit": "[pH]", 
                            "value": 7.45
                        }, 
                        "low": {
                            "code": "[pH]", 
                            "system": "http://unitsofmeasure.org", 
                            "unit": "[pH]", 
                            "value": 7.35
                        }, 
                        "type": {
                            "coding": [
                                {
                                    "code": "normal", 
                                    "display": "Normal Range", 
                                    "system": "http://hl7.org/fhir/referencerange-meaning"
                                }
                            ], 
                            "text": "Normal Range"
                        }
                    }
                ], 
                "resourceType": "Observation", 
                "status": "unknown", 
                "subject": {
                    "reference": "Patient/ehealth-1134281"
                }, 
                "text": {
                    "div": "<div xmlns=\"http://www.w3.org/1999/xhtml\">2005-07-04: pH Bld = 7.22 [pH]</div>", 
                    "status": "generated"
                }, 
                "valueQuantity": {
                    "code": "[pH]", 
                    "system": "http://unitsofmeasure.org", 
                    "unit": "[pH]", 
                    "value": 7.22
                }
            }
        }, 
        {
            "request": {
                "method": "PUT", 
                "url": "Observation/ehealth-1689-lab"
            }, 
            "resource": {
                "category": [
                    {
                        "coding": [
                            {
                                "code": "laboratory", 
                                "display": "Laboratory", 
                                "system": "http://hl7.org/fhir/observation-category"
                            }
                        ], 
                        "text": "Laboratory"
                    }
                ], 
                "code": {
                    "coding": [
                        {
                            "code": "11557-6", 
                            "display": "pCO2 Bld", 
                            "system": "http://loinc.org"
                        }
                    ], 
                    "text": "pCO2 Bld"
                }, 
                "effectiveDateTime": "2005-07-04", 
                "id": "ehealth-1689-lab", 
                "identifier": [
                    {
                        "system": "http://www.bmc.nl/zorgportal/identifiers/observations", 
                        "use": "official", 
                        "value": "ehealth-1689-lab"
                    }
                ], 
                "performer": [
                    {
                        "reference": "Practitioner/ehealth-Practitioner-71482713"
                    }
                ], 
                "referenceRange": [
                    {
                        "high": {
                            "code": "mm[Hg]", 
                            "system": "http://unitsofmeasure.org", 
                            "unit": "mm[Hg]", 
                            "value": 45.0
                        }, 
                        "low": {
                            "code": "mm[Hg]", 
                            "system": "http://unitsofmeasure.org", 
                            "unit": "mm[Hg]", 
                            "value": 35.0
                        }, 
                        "type": {
                            "coding": [
                                {
                                    "code": "normal", 
                                    "display": "Normal Range", 
                                    "system": "http://hl7.org/fhir/referencerange-meaning"
                                }
                            ], 
                            "text": "Normal Range"
                        }
                    }
                ], 
                "resourceType": "Observation", 
                "status": "unknown", 
                "subject": {
                    "reference": "Patient/ehealth-1134281"
                }, 
                "text": {
                    "div": "<div xmlns=\"http://www.w3.org/1999/xhtml\">2005-07-04: pCO2 Bld = 56 mm[Hg]</div>", 
                    "status": "generated"
                }, 
                "valueQuantity": {
                    "code": "mm[Hg]", 
                    "system": "http://unitsofmeasure.org", 
                    "unit": "mm[Hg]", 
                    "value": 56.0
                }
            }
        }, 
        {
            "request": {
                "method": "PUT", 
                "url": "Observation/ehealth-1690-lab"
            }, 
            "resource": {
                "category": [
                    {
                        "coding": [
                            {
                                "code": "laboratory", 
                                "display": "Laboratory", 
                                "system": "http://hl7.org/fhir/observation-category"
                            }
                        ], 
                        "text": "Laboratory"
                    }
                ], 
                "code": {
                    "coding": [
                        {
                            "code": "11557-6", 
                            "display": "pCO2 Bld", 
                            "system": "http://loinc.org"
                        }
                    ], 
                    "text": "pCO2 Bld"
                }, 
                "effectiveDateTime": "2005-07-04", 
                "id": "ehealth-1690-lab", 
                "identifier": [
                    {
                        "system": "http://www.bmc.nl/zorgportal/identifiers/observations", 
                        "use": "official", 
                        "value": "ehealth-1690-lab"
                    }
                ], 
                "performer": [
                    {
                        "reference": "Practitioner/ehealth-Practitioner-71482713"
                    }
                ], 
                "referenceRange": [
                    {
                        "high": {
                            "code": "mm[Hg]", 
                            "system": "http://unitsofmeasure.org", 
                            "unit": "mm[Hg]", 
                            "value": 45.0
                        }, 
                        "low": {
                            "code": "mm[Hg]", 
                            "system": "http://unitsofmeasure.org", 
                            "unit": "mm[Hg]", 
                            "value": 35.0
                        }, 
                        "type": {
                            "coding": [
                                {
                                    "code": "normal", 
                                    "display": "Normal Range", 
                                    "system": "http://hl7.org/fhir/referencerange-meaning"
                                }
                            ], 
                            "text": "Normal Range"
                        }
                    }
                ], 
                "resourceType": "Observation", 
                "status": "unknown", 
                "subject": {
                    "reference": "Patient/ehealth-1134281"
                }, 
                "text": {
                    "div": "<div xmlns=\"http://www.w3.org/1999/xhtml\">2005-07-04: pCO2 Bld = 40 mm[Hg]</div>", 
                    "status": "generated"
                }, 
                "valueQuantity": {
                    "code": "mm[Hg]", 
                    "system": "http://unitsofmeasure.org", 
                    "unit": "mm[Hg]", 
                    "value": 40.0
                }
            }
        }, 
        {
            "request": {
                "method": "PUT", 
                "url": "Observation/ehealth-1691-lab"
            }, 
            "resource": {
                "category": [
                    {
                        "coding": [
                            {
                                "code": "laboratory", 
                                "display": "Laboratory", 
                                "system": "http://hl7.org/fhir/observation-category"
                            }
                        ], 
                        "text": "Laboratory"
                    }
                ], 
                "code": {
                    "coding": [
                        {
                            "code": "11556-8", 
                            "display": "pO2 Bld", 
                            "system": "http://loinc.org"
                        }
                    ], 
                    "text": "pO2 Bld"
                }, 
                "effectiveDateTime": "2005-07-04", 
                "id": "ehealth-1691-lab", 
                "identifier": [
                    {
                        "system": "http://www.bmc.nl/zorgportal/identifiers/observations", 
                        "use": "official", 
                        "value": "ehealth-1691-lab"
                    }
                ], 
                "performer": [
                    {
                        "reference": "Practitioner/ehealth-Practitioner-71482713"
                    }
                ], 
                "referenceRange": [
                    {
                        "high": {
                            "code": "mm[Hg]", 
                            "system": "http://unitsofmeasure.org", 
                            "unit": "mm[Hg]", 
                            "value": 110.0
                        }, 
                        "low": {
                            "code": "mm[Hg]", 
                            "system": "http://unitsofmeasure.org", 
                            "unit": "mm[Hg]", 
                            "value": 80.0
                        }, 
                        "type": {
                            "coding": [
                                {
                                    "code": "normal", 
                                    "display": "Normal Range", 
                                    "system": "http://hl7.org/fhir/referencerange-meaning"
                                }
                            ], 
                            "text": "Normal Range"
                        }
                    }
                ], 
                "resourceType": "Observation", 
                "status": "unknown", 
                "subject": {
                    "reference": "Patient/ehealth-1134281"
                }, 
                "text": {
                    "div": "<div xmlns=\"http://www.w3.org/1999/xhtml\">2005-07-04: pO2 Bld = 79 mm[Hg]</div>", 
                    "status": "generated"
                }, 
                "valueQuantity": {
                    "code": "mm[Hg]", 
                    "system": "http://unitsofmeasure.org", 
                    "unit": "mm[Hg]", 
                    "value": 79.0
                }
            }
        }, 
        {
            "request": {
                "method": "PUT", 
                "url": "Observation/ehealth-1692-lab"
            }, 
            "resource": {
                "category": [
                    {
                        "coding": [
                            {
                                "code": "laboratory", 
                                "display": "Laboratory", 
                                "system": "http://hl7.org/fhir/observation-category"
                            }
                        ], 
                        "text": "Laboratory"
                    }
                ], 
                "code": {
                    "coding": [
                        {
                            "code": "11556-8", 
                            "display": "pO2 Bld", 
                            "system": "http://loinc.org"
                        }
                    ], 
                    "text": "pO2 Bld"
                }, 
                "effectiveDateTime": "2005-07-04", 
                "id": "ehealth-1692-lab", 
                "identifier": [
                    {
                        "system": "http://www.bmc.nl/zorgportal/identifiers/observations", 
                        "use": "official", 
                        "value": "ehealth-1692-lab"
                    }
                ], 
                "performer": [
                    {
                        "reference": "Practitioner/ehealth-Practitioner-71482713"
                    }
                ], 
                "referenceRange": [
                    {
                        "high": {
                            "code": "mm[Hg]", 
                            "system": "http://unitsofmeasure.org", 
                            "unit": "mm[Hg]", 
                            "value": 110.0
                        }, 
                        "low": {
                            "code": "mm[Hg]", 
                            "system": "http://unitsofmeasure.org", 
                            "unit": "mm[Hg]", 
                            "value": 80.0
                        }, 
                        "type": {
                            "coding": [
                                {
                                    "code": "normal", 
                                    "display": "Normal Range", 
                                    "system": "http://hl7.org/fhir/referencerange-meaning"
                                }
                            ], 
                            "text": "Normal Range"
                        }
                    }
                ], 
                "resourceType": "Observation", 
                "status": "unknown", 
                "subject": {
                    "reference": "Patient/ehealth-1134281"
                }, 
                "text": {
                    "div": "<div xmlns=\"http://www.w3.org/1999/xhtml\">2005-07-04: pO2 Bld = 60 mm[Hg]</div>", 
                    "status": "generated"
                }, 
                "valueQuantity": {
                    "code": "mm[Hg]", 
                    "system": "http://unitsofmeasure.org", 
                    "unit": "mm[Hg]", 
                    "value": 60.0
                }
            }
        }, 
        {
            "request": {
                "method": "PUT", 
                "url": "Observation/ehealth-1693-lab"
            }, 
            "resource": {
                "category": [
                    {
                        "coding": [
                            {
                                "code": "laboratory", 
                                "display": "Laboratory", 
                                "system": "http://hl7.org/fhir/observation-category"
                            }
                        ], 
                        "text": "Laboratory"
                    }
                ], 
                "code": {
                    "coding": [
                        {
                            "code": "1959-6", 
                            "display": "HCO3 Bld-sCnc", 
                            "system": "http://loinc.org"
                        }
                    ], 
                    "text": "HCO3 Bld-sCnc"
                }, 
                "effectiveDateTime": "2005-07-04", 
                "id": "ehealth-1693-lab", 
                "identifier": [
                    {
                        "system": "http://www.bmc.nl/zorgportal/identifiers/observations", 
                        "use": "official", 
                        "value": "ehealth-1693-lab"
                    }
                ], 
                "performer": [
                    {
                        "reference": "Practitioner/ehealth-Practitioner-71482713"
                    }
                ], 
                "referenceRange": [
                    {
                        "high": {
                            "code": "mmol/L", 
                            "system": "http://unitsofmeasure.org", 
                            "unit": "mmol/L", 
                            "value": 29.0
                        }, 
                        "low": {
                            "code": "mmol/L", 
                            "system": "http://unitsofmeasure.org", 
                            "unit": "mmol/L", 
                            "value": 22.0
                        }, 
                        "type": {
                            "coding": [
                                {
                                    "code": "normal", 
                                    "display": "Normal Range", 
                                    "system": "http://hl7.org/fhir/referencerange-meaning"
                                }
                            ], 
                            "text": "Normal Range"
                        }
                    }
                ], 
                "resourceType": "Observation", 
                "status": "unknown", 
                "subject": {
                    "reference": "Patient/ehealth-1134281"
                }, 
                "text": {
                    "div": "<div xmlns=\"http://www.w3.org/1999/xhtml\">2005-07-04: HCO3 Bld-sCnc = 23.1 mmol/L</div>", 
                    "status": "generated"
                }, 
                "valueQuantity": {
                    "code": "mmol/L", 
                    "system": "http://unitsofmeasure.org", 
                    "unit": "mmol/L", 
                    "value": 23.1
                }
            }
        }, 
        {
            "request": {
                "method": "PUT", 
                "url": "Observation/ehealth-1694-lab"
            }, 
            "resource": {
                "category": [
                    {
                        "coding": [
                            {
                                "code": "laboratory", 
                                "display": "Laboratory", 
                                "system": "http://hl7.org/fhir/observation-category"
                            }
                        ], 
                        "text": "Laboratory"
                    }
                ], 
                "code": {
                    "coding": [
                        {
                            "code": "1959-6", 
                            "display": "HCO3 Bld-sCnc", 
                            "system": "http://loinc.org"
                        }
                    ], 
                    "text": "HCO3 Bld-sCnc"
                }, 
                "effectiveDateTime": "2005-07-04", 
                "id": "ehealth-1694-lab", 
                "identifier": [
                    {
                        "system": "http://www.bmc.nl/zorgportal/identifiers/observations", 
                        "use": "official", 
                        "value": "ehealth-1694-lab"
                    }
                ], 
                "performer": [
                    {
                        "reference": "Practitioner/ehealth-Practitioner-71482713"
                    }
                ], 
                "referenceRange": [
                    {
                        "high": {
                            "code": "mmol/L", 
                            "system": "http://unitsofmeasure.org", 
                            "unit": "mmol/L", 
                            "value": 29.0
                        }, 
                        "low": {
                            "code": "mmol/L", 
                            "system": "http://unitsofmeasure.org", 
                            "unit": "mmol/L", 
                            "value": 22.0
                        }, 
                        "type": {
                            "coding": [
                                {
                                    "code": "normal", 
                                    "display": "Normal Range", 
                                    "system": "http://hl7.org/fhir/referencerange-meaning"
                                }
                            ], 
                            "text": "Normal Range"
                        }
                    }
                ], 
                "resourceType": "Observation", 
                "status": "unknown", 
                "subject": {
                    "reference": "Patient/ehealth-1134281"
                }, 
                "text": {
                    "div": "<div xmlns=\"http://www.w3.org/1999/xhtml\">2005-07-04: HCO3 Bld-sCnc = 22.8 mmol/L</div>", 
                    "status": "generated"
                }, 
                "valueQuantity": {
                    "code": "mmol/L", 
                    "system": "http://unitsofmeasure.org", 
                    "unit": "mmol/L", 
                    "value": 22.8
                }
            }
        }, 
        {
            "request": {
                "method": "PUT", 
                "url": "Observation/ehealth-1695-lab"
            }, 
            "resource": {
                "category": [
                    {
                        "coding": [
                            {
                                "code": "laboratory", 
                                "display": "Laboratory", 
                                "system": "http://hl7.org/fhir/observation-category"
                            }
                        ], 
                        "text": "Laboratory"
                    }
                ], 
                "code": {
                    "coding": [
                        {
                            "code": "20565-8", 
                            "display": "CO2 Bld-sCnc", 
                            "system": "http://loinc.org"
                        }
                    ], 
                    "text": "CO2 Bld-sCnc"
                }, 
                "effectiveDateTime": "2005-07-04", 
                "id": "ehealth-1695-lab", 
                "identifier": [
                    {
                        "system": "http://www.bmc.nl/zorgportal/identifiers/observations", 
                        "use": "official", 
                        "value": "ehealth-1695-lab"
                    }
                ], 
                "performer": [
                    {
                        "reference": "Practitioner/ehealth-Practitioner-71482713"
                    }
                ], 
                "referenceRange": [
                    {
                        "high": {
                            "code": "mmol/L", 
                            "system": "http://unitsofmeasure.org", 
                            "unit": "mmol/L", 
                            "value": 29.0
                        }, 
                        "low": {
                            "code": "mmol/L", 
                            "system": "http://unitsofmeasure.org", 
                            "unit": "mmol/L", 
                            "value": 22.0
                        }, 
                        "type": {
                            "coding": [
                                {
                                    "code": "normal", 
                                    "display": "Normal Range", 
                                    "system": "http://hl7.org/fhir/referencerange-meaning"
                                }
                            ], 
                            "text": "Normal Range"
                        }
                    }
                ], 
                "resourceType": "Observation", 
                "status": "unknown", 
                "subject": {
                    "reference": "Patient/ehealth-1134281"
                }, 
                "text": {
                    "div": "<div xmlns=\"http://www.w3.org/1999/xhtml\">2005-07-04: CO2 Bld-sCnc = 25 mmol/L</div>", 
                    "status": "generated"
                }, 
                "valueQuantity": {
                    "code": "mmol/L", 
                    "system": "http://unitsofmeasure.org", 
                    "unit": "mmol/L", 
                    "value": 25.0
                }
            }
        }, 
        {
            "request": {
                "method": "PUT", 
                "url": "Observation/ehealth-1696-lab"
            }, 
            "resource": {
                "category": [
                    {
                        "coding": [
                            {
                                "code": "laboratory", 
                                "display": "Laboratory", 
                                "system": "http://hl7.org/fhir/observation-category"
                            }
                        ], 
                        "text": "Laboratory"
                    }
                ], 
                "code": {
                    "coding": [
                        {
                            "code": "11555-0", 
                            "display": "Base excess Bld-sCnc", 
                            "system": "http://loinc.org"
                        }
                    ], 
                    "text": "Base excess Bld-sCnc"
                }, 
                "effectiveDateTime": "2005-07-04", 
                "id": "ehealth-1696-lab", 
                "identifier": [
                    {
                        "system": "http://www.bmc.nl/zorgportal/identifiers/observations", 
                        "use": "official", 
                        "value": "ehealth-1696-lab"
                    }
                ], 
                "performer": [
                    {
                        "reference": "Practitioner/ehealth-Practitioner-71482713"
                    }
                ], 
                "referenceRange": [
                    {
                        "high": {
                            "code": "mmol/L", 
                            "system": "http://unitsofmeasure.org", 
                            "unit": "mmol/L", 
                            "value": 0.0
                        }, 
                        "low": {
                            "code": "mmol/L", 
                            "system": "http://unitsofmeasure.org", 
                            "unit": "mmol/L", 
                            "value": 0.0
                        }, 
                        "type": {
                            "coding": [
                                {
                                    "code": "normal", 
                                    "display": "Normal Range", 
                                    "system": "http://hl7.org/fhir/referencerange-meaning"
                                }
                            ], 
                            "text": "Normal Range"
                        }
                    }
                ], 
                "resourceType": "Observation", 
                "status": "unknown", 
                "subject": {
                    "reference": "Patient/ehealth-1134281"
                }, 
                "text": {
                    "div": "<div xmlns=\"http://www.w3.org/1999/xhtml\">2005-07-04: Base excess Bld-sCnc = -3 mmol/L</div>", 
                    "status": "generated"
                }, 
                "valueQuantity": {
                    "code": "mmol/L", 
                    "system": "http://unitsofmeasure.org", 
                    "unit": "mmol/L", 
                    "value": -3.0
                }
            }
        }, 
        {
            "request": {
                "method": "PUT", 
                "url": "Observation/ehealth-1697-lab"
            }, 
            "resource": {
                "category": [
                    {
                        "coding": [
                            {
                                "code": "laboratory", 
                                "display": "Laboratory", 
                                "system": "http://hl7.org/fhir/observation-category"
                            }
                        ], 
                        "text": "Laboratory"
                    }
                ], 
                "code": {
                    "coding": [
                        {
                            "code": "741-9", 
                            "display": "Microcytes Bld Ql Smear", 
                            "system": "http://loinc.org"
                        }
                    ], 
                    "text": "Microcytes Bld Ql Smear"
                }, 
                "effectiveDateTime": "2005-07-05", 
                "extension": [
                    {
                        "url": "http://fhir-registry.smarthealthit.org/StructureDefinition/labs#value-range", 
                        "valueString": [
                            "None", 
                            "Few", 
                            "Many"
                        ]
                    }
                ], 
                "id": "ehealth-1697-lab", 
                "identifier": [
                    {
                        "system": "http://www.bmc.nl/zorgportal/identifiers/observations", 
                        "use": "official", 
                        "value": "ehealth-1697-lab"
                    }
                ], 
                "performer": [
                    {
                        "reference": "Practitioner/ehealth-Practitioner-71482713"
                    }
                ], 
                "resourceType": "Observation", 
                "status": "unknown", 
                "subject": {
                    "reference": "Patient/ehealth-1134281"
                }, 
                "text": {
                    "div": "<div xmlns=\"http://www.w3.org/1999/xhtml\">2005-07-05: Microcytes Bld Ql Smear = Few </div>", 
                    "status": "generated"
                }, 
                "valueString": "Few"
            }
        }, 
        {
            "request": {
                "method": "PUT", 
                "url": "Observation/ehealth-1698-lab"
            }, 
            "resource": {
                "category": [
                    {
                        "coding": [
                            {
                                "code": "laboratory", 
                                "display": "Laboratory", 
                                "system": "http://hl7.org/fhir/observation-category"
                            }
                        ], 
                        "text": "Laboratory"
                    }
                ], 
                "code": {
                    "coding": [
                        {
                            "code": "738-5", 
                            "display": "Macrocytes Bld Ql Smear", 
                            "system": "http://loinc.org"
                        }
                    ], 
                    "text": "Macrocytes Bld Ql Smear"
                }, 
                "effectiveDateTime": "2005-07-05", 
                "extension": [
                    {
                        "url": "http://fhir-registry.smarthealthit.org/StructureDefinition/labs#value-range", 
                        "valueString": [
                            "None", 
                            "Slight", 
                            "Moderate", 
                            "Many"
                        ]
                    }
                ], 
                "id": "ehealth-1698-lab", 
                "identifier": [
                    {
                        "system": "http://www.bmc.nl/zorgportal/identifiers/observations", 
                        "use": "official", 
                        "value": "ehealth-1698-lab"
                    }
                ], 
                "performer": [
                    {
                        "reference": "Practitioner/ehealth-Practitioner-71482713"
                    }
                ], 
                "resourceType": "Observation", 
                "status": "unknown", 
                "subject": {
                    "reference": "Patient/ehealth-1134281"
                }, 
                "text": {
                    "div": "<div xmlns=\"http://www.w3.org/1999/xhtml\">2005-07-05: Macrocytes Bld Ql Smear = Moderate </div>", 
                    "status": "generated"
                }, 
                "valueString": "Moderate"
            }
        }, 
        {
            "request": {
                "method": "PUT", 
                "url": "Observation/ehealth-1699-lab"
            }, 
            "resource": {
                "category": [
                    {
                        "coding": [
                            {
                                "code": "laboratory", 
                                "display": "Laboratory", 
                                "system": "http://hl7.org/fhir/observation-category"
                            }
                        ], 
                        "text": "Laboratory"
                    }
                ], 
                "code": {
                    "coding": [
                        {
                            "code": "1648-5", 
                            "display": "TB Wheal 3D p 5 TU Diam", 
                            "system": "http://loinc.org"
                        }
                    ], 
                    "text": "TB Wheal 3D p 5 TU Diam"
                }, 
                "effectiveDateTime": "2005-07-05", 
                "id": "ehealth-1699-lab", 
                "identifier": [
                    {
                        "system": "http://www.bmc.nl/zorgportal/identifiers/observations", 
                        "use": "official", 
                        "value": "ehealth-1699-lab"
                    }
                ], 
                "performer": [
                    {
                        "reference": "Practitioner/ehealth-Practitioner-71482713"
                    }
                ], 
                "referenceRange": [
                    {
                        "high": {
                            "code": "mm", 
                            "system": "http://unitsofmeasure.org", 
                            "unit": "mm", 
                            "value": 4.4
                        }, 
                        "low": {
                            "code": "mm", 
                            "system": "http://unitsofmeasure.org", 
                            "unit": "mm", 
                            "value": 0.1
                        }, 
                        "type": {
                            "coding": [
                                {
                                    "code": "normal", 
                                    "display": "Normal Range", 
                                    "system": "http://hl7.org/fhir/referencerange-meaning"
                                }
                            ], 
                            "text": "Normal Range"
                        }
                    }
                ], 
                "resourceType": "Observation", 
                "status": "unknown", 
                "subject": {
                    "reference": "Patient/ehealth-1134281"
                }, 
                "text": {
                    "div": "<div xmlns=\"http://www.w3.org/1999/xhtml\">2005-07-05: TB Wheal 3D p 5 TU Diam = 1.4 mm</div>", 
                    "status": "generated"
                }, 
                "valueQuantity": {
                    "code": "mm", 
                    "system": "http://unitsofmeasure.org", 
                    "unit": "mm", 
                    "value": 1.4
                }
            }
        }, 
        {
            "request": {
                "method": "PUT", 
                "url": "Observation/ehealth-1700-lab"
            }, 
            "resource": {
                "category": [
                    {
                        "coding": [
                            {
                                "code": "laboratory", 
                                "display": "Laboratory", 
                                "system": "http://hl7.org/fhir/observation-category"
                            }
                        ], 
                        "text": "Laboratory"
                    }
                ], 
                "code": {
                    "coding": [
                        {
                            "code": "26515-7", 
                            "display": "Platelet # Bld", 
                            "system": "http://loinc.org"
                        }
                    ], 
                    "text": "Platelet # Bld"
                }, 
                "effectiveDateTime": "2005-07-05", 
                "id": "ehealth-1700-lab", 
                "identifier": [
                    {
                        "system": "http://www.bmc.nl/zorgportal/identifiers/observations", 
                        "use": "official", 
                        "value": "ehealth-1700-lab"
                    }
                ], 
                "performer": [
                    {
                        "reference": "Practitioner/ehealth-Practitioner-71482713"
                    }
                ], 
                "referenceRange": [
                    {
                        "high": {
                            "code": "10*3/uL", 
                            "system": "http://unitsofmeasure.org", 
                            "unit": "10*3/uL", 
                            "value": 450.0
                        }, 
                        "low": {
                            "code": "10*3/uL", 
                            "system": "http://unitsofmeasure.org", 
                            "unit": "10*3/uL", 
                            "value": 150.0
                        }, 
                        "type": {
                            "coding": [
                                {
                                    "code": "normal", 
                                    "display": "Normal Range", 
                                    "system": "http://hl7.org/fhir/referencerange-meaning"
                                }
                            ], 
                            "text": "Normal Range"
                        }
                    }
                ], 
                "resourceType": "Observation", 
                "status": "unknown", 
                "subject": {
                    "reference": "Patient/ehealth-1134281"
                }, 
                "text": {
                    "div": "<div xmlns=\"http://www.w3.org/1999/xhtml\">2005-07-05: Platelet # Bld = 248 10*3/uL</div>", 
                    "status": "generated"
                }, 
                "valueQuantity": {
                    "code": "10*3/uL", 
                    "system": "http://unitsofmeasure.org", 
                    "unit": "10*3/uL", 
                    "value": 248.0
                }
            }
        }, 
        {
            "request": {
                "method": "PUT", 
                "url": "Observation/ehealth-1701-lab"
            }, 
            "resource": {
                "category": [
                    {
                        "coding": [
                            {
                                "code": "laboratory", 
                                "display": "Laboratory", 
                                "system": "http://hl7.org/fhir/observation-category"
                            }
                        ], 
                        "text": "Laboratory"
                    }
                ], 
                "code": {
                    "coding": [
                        {
                            "code": "30428-7", 
                            "display": "MCV RBC", 
                            "system": "http://loinc.org"
                        }
                    ], 
                    "text": "MCV RBC"
                }, 
                "effectiveDateTime": "2005-07-05", 
                "id": "ehealth-1701-lab", 
                "identifier": [
                    {
                        "system": "http://www.bmc.nl/zorgportal/identifiers/observations", 
                        "use": "official", 
                        "value": "ehealth-1701-lab"
                    }
                ], 
                "performer": [
                    {
                        "reference": "Practitioner/ehealth-Practitioner-71482713"
                    }
                ], 
                "referenceRange": [
                    {
                        "high": {
                            "code": "fL", 
                            "system": "http://unitsofmeasure.org", 
                            "unit": "fL", 
                            "value": 125.0
                        }, 
                        "low": {
                            "code": "fL", 
                            "system": "http://unitsofmeasure.org", 
                            "unit": "fL", 
                            "value": 95.0
                        }, 
                        "type": {
                            "coding": [
                                {
                                    "code": "normal", 
                                    "display": "Normal Range", 
                                    "system": "http://hl7.org/fhir/referencerange-meaning"
                                }
                            ], 
                            "text": "Normal Range"
                        }
                    }
                ], 
                "resourceType": "Observation", 
                "status": "unknown", 
                "subject": {
                    "reference": "Patient/ehealth-1134281"
                }, 
                "text": {
                    "div": "<div xmlns=\"http://www.w3.org/1999/xhtml\">2005-07-05: MCV RBC = 107 fL</div>", 
                    "status": "generated"
                }, 
                "valueQuantity": {
                    "code": "fL", 
                    "system": "http://unitsofmeasure.org", 
                    "unit": "fL", 
                    "value": 107.0
                }
            }
        }, 
        {
            "request": {
                "method": "PUT", 
                "url": "Observation/ehealth-1702-lab"
            }, 
            "resource": {
                "category": [
                    {
                        "coding": [
                            {
                                "code": "laboratory", 
                                "display": "Laboratory", 
                                "system": "http://hl7.org/fhir/observation-category"
                            }
                        ], 
                        "text": "Laboratory"
                    }
                ], 
                "code": {
                    "coding": [
                        {
                            "code": "785-6", 
                            "display": "MCH RBC Qn Auto", 
                            "system": "http://loinc.org"
                        }
                    ], 
                    "text": "MCH RBC Qn Auto"
                }, 
                "effectiveDateTime": "2005-07-05", 
                "id": "ehealth-1702-lab", 
                "identifier": [
                    {
                        "system": "http://www.bmc.nl/zorgportal/identifiers/observations", 
                        "use": "official", 
                        "value": "ehealth-1702-lab"
                    }
                ], 
                "performer": [
                    {
                        "reference": "Practitioner/ehealth-Practitioner-71482713"
                    }
                ], 
                "referenceRange": [
                    {
                        "high": {
                            "code": "pg", 
                            "system": "http://unitsofmeasure.org", 
                            "unit": "pg", 
                            "value": 42.0
                        }, 
                        "low": {
                            "code": "pg", 
                            "system": "http://unitsofmeasure.org", 
                            "unit": "pg", 
                            "value": 30.0
                        }, 
                        "type": {
                            "coding": [
                                {
                                    "code": "normal", 
                                    "display": "Normal Range", 
                                    "system": "http://hl7.org/fhir/referencerange-meaning"
                                }
                            ], 
                            "text": "Normal Range"
                        }
                    }
                ], 
                "resourceType": "Observation", 
                "status": "unknown", 
                "subject": {
                    "reference": "Patient/ehealth-1134281"
                }, 
                "text": {
                    "div": "<div xmlns=\"http://www.w3.org/1999/xhtml\">2005-07-05: MCH RBC Qn Auto = 37.2 pg</div>", 
                    "status": "generated"
                }, 
                "valueQuantity": {
                    "code": "pg", 
                    "system": "http://unitsofmeasure.org", 
                    "unit": "pg", 
                    "value": 37.2
                }
            }
        }, 
        {
            "request": {
                "method": "PUT", 
                "url": "Observation/ehealth-1703-lab"
            }, 
            "resource": {
                "category": [
                    {
                        "coding": [
                            {
                                "code": "laboratory", 
                                "display": "Laboratory", 
                                "system": "http://hl7.org/fhir/observation-category"
                            }
                        ], 
                        "text": "Laboratory"
                    }
                ], 
                "code": {
                    "coding": [
                        {
                            "code": "786-4", 
                            "display": "MCHC RBC Auto-mCnc", 
                            "system": "http://loinc.org"
                        }
                    ], 
                    "text": "MCHC RBC Auto-mCnc"
                }, 
                "effectiveDateTime": "2005-07-05", 
                "id": "ehealth-1703-lab", 
                "identifier": [
                    {
                        "system": "http://www.bmc.nl/zorgportal/identifiers/observations", 
                        "use": "official", 
                        "value": "ehealth-1703-lab"
                    }
                ], 
                "performer": [
                    {
                        "reference": "Practitioner/ehealth-Practitioner-71482713"
                    }
                ], 
                "referenceRange": [
                    {
                        "high": {
                            "code": "g/dL", 
                            "system": "http://unitsofmeasure.org", 
                            "unit": "g/dL", 
                            "value": 34.0
                        }, 
                        "low": {
                            "code": "g/dL", 
                            "system": "http://unitsofmeasure.org", 
                            "unit": "g/dL", 
                            "value": 30.0
                        }, 
                        "type": {
                            "coding": [
                                {
                                    "code": "normal", 
                                    "display": "Normal Range", 
                                    "system": "http://hl7.org/fhir/referencerange-meaning"
                                }
                            ], 
                            "text": "Normal Range"
                        }
                    }
                ], 
                "resourceType": "Observation", 
                "status": "unknown", 
                "subject": {
                    "reference": "Patient/ehealth-1134281"
                }, 
                "text": {
                    "div": "<div xmlns=\"http://www.w3.org/1999/xhtml\">2005-07-05: MCHC RBC Auto-mCnc = 34.7 g/dL</div>", 
                    "status": "generated"
                }, 
                "valueQuantity": {
                    "code": "g/dL", 
                    "system": "http://unitsofmeasure.org", 
                    "unit": "g/dL", 
                    "value": 34.7
                }
            }
        }, 
        {
            "request": {
                "method": "PUT", 
                "url": "Observation/ehealth-1704-lab"
            }, 
            "resource": {
                "category": [
                    {
                        "coding": [
                            {
                                "code": "laboratory", 
                                "display": "Laboratory", 
                                "system": "http://hl7.org/fhir/observation-category"
                            }
                        ], 
                        "text": "Laboratory"
                    }
                ], 
                "code": {
                    "coding": [
                        {
                            "code": "9317-9", 
                            "display": "Platelet Bld Ql Smear", 
                            "system": "http://loinc.org"
                        }
                    ], 
                    "text": "Platelet Bld Ql Smear"
                }, 
                "effectiveDateTime": "2005-07-05", 
                "extension": [
                    {
                        "url": "http://fhir-registry.smarthealthit.org/StructureDefinition/labs#value-range", 
                        "valueString": [
                            "Low", 
                            "Adequate", 
                            "High"
                        ]
                    }
                ], 
                "id": "ehealth-1704-lab", 
                "identifier": [
                    {
                        "system": "http://www.bmc.nl/zorgportal/identifiers/observations", 
                        "use": "official", 
                        "value": "ehealth-1704-lab"
                    }
                ], 
                "performer": [
                    {
                        "reference": "Practitioner/ehealth-Practitioner-71482713"
                    }
                ], 
                "resourceType": "Observation", 
                "status": "unknown", 
                "subject": {
                    "reference": "Patient/ehealth-1134281"
                }, 
                "text": {
                    "div": "<div xmlns=\"http://www.w3.org/1999/xhtml\">2005-07-05: Platelet Bld Ql Smear = Adequate </div>", 
                    "status": "generated"
                }, 
                "valueString": "Adequate"
            }
        }, 
        {
            "request": {
                "method": "PUT", 
                "url": "Observation/ehealth-1705-lab"
            }, 
            "resource": {
                "category": [
                    {
                        "coding": [
                            {
                                "code": "laboratory", 
                                "display": "Laboratory", 
                                "system": "http://hl7.org/fhir/observation-category"
                            }
                        ], 
                        "text": "Laboratory"
                    }
                ], 
                "code": {
                    "coding": [
                        {
                            "code": "17861-6", 
                            "display": "Calcium SerPl-mCnc", 
                            "system": "http://loinc.org"
                        }
                    ], 
                    "text": "Calcium SerPl-mCnc"
                }, 
                "effectiveDateTime": "2005-07-05", 
                "id": "ehealth-1705-lab", 
                "identifier": [
                    {
                        "system": "http://www.bmc.nl/zorgportal/identifiers/observations", 
                        "use": "official", 
                        "value": "ehealth-1705-lab"
                    }
                ], 
                "performer": [
                    {
                        "reference": "Practitioner/ehealth-Practitioner-71482713"
                    }
                ], 
                "referenceRange": [
                    {
                        "high": {
                            "code": "mg/dL", 
                            "system": "http://unitsofmeasure.org", 
                            "unit": "mg/dL", 
                            "value": 10.5
                        }, 
                        "low": {
                            "code": "mg/dL", 
                            "system": "http://unitsofmeasure.org", 
                            "unit": "mg/dL", 
                            "value": 8.5
                        }, 
                        "type": {
                            "coding": [
                                {
                                    "code": "normal", 
                                    "display": "Normal Range", 
                                    "system": "http://hl7.org/fhir/referencerange-meaning"
                                }
                            ], 
                            "text": "Normal Range"
                        }
                    }
                ], 
                "resourceType": "Observation", 
                "status": "unknown", 
                "subject": {
                    "reference": "Patient/ehealth-1134281"
                }, 
                "text": {
                    "div": "<div xmlns=\"http://www.w3.org/1999/xhtml\">2005-07-05: Calcium SerPl-mCnc = 7.7 mg/dL</div>", 
                    "status": "generated"
                }, 
                "valueQuantity": {
                    "code": "mg/dL", 
                    "system": "http://unitsofmeasure.org", 
                    "unit": "mg/dL", 
                    "value": 7.7
                }
            }
        }, 
        {
            "request": {
                "method": "PUT", 
                "url": "Observation/ehealth-1706-lab"
            }, 
            "resource": {
                "category": [
                    {
                        "coding": [
                            {
                                "code": "laboratory", 
                                "display": "Laboratory", 
                                "system": "http://hl7.org/fhir/observation-category"
                            }
                        ], 
                        "text": "Laboratory"
                    }
                ], 
                "code": {
                    "coding": [
                        {
                            "code": "2951-2", 
                            "display": "Sodium SerPl-sCnc", 
                            "system": "http://loinc.org"
                        }
                    ], 
                    "text": "Sodium SerPl-sCnc"
                }, 
                "effectiveDateTime": "2005-07-05", 
                "id": "ehealth-1706-lab", 
                "identifier": [
                    {
                        "system": "http://www.bmc.nl/zorgportal/identifiers/observations", 
                        "use": "official", 
                        "value": "ehealth-1706-lab"
                    }
                ], 
                "performer": [
                    {
                        "reference": "Practitioner/ehealth-Practitioner-71482713"
                    }
                ], 
                "referenceRange": [
                    {
                        "high": {
                            "code": "mmol/L", 
                            "system": "http://unitsofmeasure.org", 
                            "unit": "mmol/L", 
                            "value": 145.0
                        }, 
                        "low": {
                            "code": "mmol/L", 
                            "system": "http://unitsofmeasure.org", 
                            "unit": "mmol/L", 
                            "value": 135.0
                        }, 
                        "type": {
                            "coding": [
                                {
                                    "code": "normal", 
                                    "display": "Normal Range", 
                                    "system": "http://hl7.org/fhir/referencerange-meaning"
                                }
                            ], 
                            "text": "Normal Range"
                        }
                    }
                ], 
                "resourceType": "Observation", 
                "status": "unknown", 
                "subject": {
                    "reference": "Patient/ehealth-1134281"
                }, 
                "text": {
                    "div": "<div xmlns=\"http://www.w3.org/1999/xhtml\">2005-07-05: Sodium SerPl-sCnc = 137 mmol/L</div>", 
                    "status": "generated"
                }, 
                "valueQuantity": {
                    "code": "mmol/L", 
                    "system": "http://unitsofmeasure.org", 
                    "unit": "mmol/L", 
                    "value": 137.0
                }
            }
        }, 
        {
            "request": {
                "method": "PUT", 
                "url": "Observation/ehealth-1707-lab"
            }, 
            "resource": {
                "category": [
                    {
                        "coding": [
                            {
                                "code": "laboratory", 
                                "display": "Laboratory", 
                                "system": "http://hl7.org/fhir/observation-category"
                            }
                        ], 
                        "text": "Laboratory"
                    }
                ], 
                "code": {
                    "coding": [
                        {
                            "code": "2160-0", 
                            "display": "Creat SerPl-mCnc", 
                            "system": "http://loinc.org"
                        }
                    ], 
                    "text": "Creat SerPl-mCnc"
                }, 
                "effectiveDateTime": "2005-07-05", 
                "id": "ehealth-1707-lab", 
                "identifier": [
                    {
                        "system": "http://www.bmc.nl/zorgportal/identifiers/observations", 
                        "use": "official", 
                        "value": "ehealth-1707-lab"
                    }
                ], 
                "performer": [
                    {
                        "reference": "Practitioner/ehealth-Practitioner-71482713"
                    }
                ], 
                "referenceRange": [
                    {
                        "high": {
                            "code": "mg/dL", 
                            "system": "http://unitsofmeasure.org", 
                            "unit": "mg/dL", 
                            "value": 0.6
                        }, 
                        "low": {
                            "code": "mg/dL", 
                            "system": "http://unitsofmeasure.org", 
                            "unit": "mg/dL", 
                            "value": 0.2
                        }, 
                        "type": {
                            "coding": [
                                {
                                    "code": "normal", 
                                    "display": "Normal Range", 
                                    "system": "http://hl7.org/fhir/referencerange-meaning"
                                }
                            ], 
                            "text": "Normal Range"
                        }
                    }
                ], 
                "resourceType": "Observation", 
                "status": "unknown", 
                "subject": {
                    "reference": "Patient/ehealth-1134281"
                }, 
                "text": {
                    "div": "<div xmlns=\"http://www.w3.org/1999/xhtml\">2005-07-05: Creat SerPl-mCnc = 1 mg/dL</div>", 
                    "status": "generated"
                }, 
                "valueQuantity": {
                    "code": "mg/dL", 
                    "system": "http://unitsofmeasure.org", 
                    "unit": "mg/dL", 
                    "value": 1.0
                }
            }
        }, 
        {
            "request": {
                "method": "PUT", 
                "url": "Observation/ehealth-1708-lab"
            }, 
            "resource": {
                "category": [
                    {
                        "coding": [
                            {
                                "code": "laboratory", 
                                "display": "Laboratory", 
                                "system": "http://hl7.org/fhir/observation-category"
                            }
                        ], 
                        "text": "Laboratory"
                    }
                ], 
                "code": {
                    "coding": [
                        {
                            "code": "2823-3", 
                            "display": "Potassium SerPl-sCnc", 
                            "system": "http://loinc.org"
                        }
                    ], 
                    "text": "Potassium SerPl-sCnc"
                }, 
                "effectiveDateTime": "2005-07-05", 
                "id": "ehealth-1708-lab", 
                "identifier": [
                    {
                        "system": "http://www.bmc.nl/zorgportal/identifiers/observations", 
                        "use": "official", 
                        "value": "ehealth-1708-lab"
                    }
                ], 
                "performer": [
                    {
                        "reference": "Practitioner/ehealth-Practitioner-71482713"
                    }
                ], 
                "referenceRange": [
                    {
                        "high": {
                            "code": "mmol/L", 
                            "system": "http://unitsofmeasure.org", 
                            "unit": "mmol/L", 
                            "value": 5.5
                        }, 
                        "low": {
                            "code": "mmol/L", 
                            "system": "http://unitsofmeasure.org", 
                            "unit": "mmol/L", 
                            "value": 3.5
                        }, 
                        "type": {
                            "coding": [
                                {
                                    "code": "normal", 
                                    "display": "Normal Range", 
                                    "system": "http://hl7.org/fhir/referencerange-meaning"
                                }
                            ], 
                            "text": "Normal Range"
                        }
                    }
                ], 
                "resourceType": "Observation", 
                "status": "unknown", 
                "subject": {
                    "reference": "Patient/ehealth-1134281"
                }, 
                "text": {
                    "div": "<div xmlns=\"http://www.w3.org/1999/xhtml\">2005-07-05: Potassium SerPl-sCnc = 5.4 mmol/L</div>", 
                    "status": "generated"
                }, 
                "valueQuantity": {
                    "code": "mmol/L", 
                    "system": "http://unitsofmeasure.org", 
                    "unit": "mmol/L", 
                    "value": 5.4
                }
            }
        }, 
        {
            "request": {
                "method": "PUT", 
                "url": "Observation/ehealth-1709-lab"
            }, 
            "resource": {
                "category": [
                    {
                        "coding": [
                            {
                                "code": "laboratory", 
                                "display": "Laboratory", 
                                "system": "http://hl7.org/fhir/observation-category"
                            }
                        ], 
                        "text": "Laboratory"
                    }
                ], 
                "code": {
                    "coding": [
                        {
                            "code": "2075-0", 
                            "display": "Chloride SerPl-sCnc", 
                            "system": "http://loinc.org"
                        }
                    ], 
                    "text": "Chloride SerPl-sCnc"
                }, 
                "effectiveDateTime": "2005-07-05", 
                "id": "ehealth-1709-lab", 
                "identifier": [
                    {
                        "system": "http://www.bmc.nl/zorgportal/identifiers/observations", 
                        "use": "official", 
                        "value": "ehealth-1709-lab"
                    }
                ], 
                "performer": [
                    {
                        "reference": "Practitioner/ehealth-Practitioner-71482713"
                    }
                ], 
                "referenceRange": [
                    {
                        "high": {
                            "code": "mmol/L", 
                            "system": "http://unitsofmeasure.org", 
                            "unit": "mmol/L", 
                            "value": 105.0
                        }, 
                        "low": {
                            "code": "mmol/L", 
                            "system": "http://unitsofmeasure.org", 
                            "unit": "mmol/L", 
                            "value": 95.0
                        }, 
                        "type": {
                            "coding": [
                                {
                                    "code": "normal", 
                                    "display": "Normal Range", 
                                    "system": "http://hl7.org/fhir/referencerange-meaning"
                                }
                            ], 
                            "text": "Normal Range"
                        }
                    }
                ], 
                "resourceType": "Observation", 
                "status": "unknown", 
                "subject": {
                    "reference": "Patient/ehealth-1134281"
                }, 
                "text": {
                    "div": "<div xmlns=\"http://www.w3.org/1999/xhtml\">2005-07-05: Chloride SerPl-sCnc = 105 mmol/L</div>", 
                    "status": "generated"
                }, 
                "valueQuantity": {
                    "code": "mmol/L", 
                    "system": "http://unitsofmeasure.org", 
                    "unit": "mmol/L", 
                    "value": 105.0
                }
            }
        }, 
        {
            "request": {
                "method": "PUT", 
                "url": "Observation/ehealth-1710-lab"
            }, 
            "resource": {
                "category": [
                    {
                        "coding": [
                            {
                                "code": "laboratory", 
                                "display": "Laboratory", 
                                "system": "http://hl7.org/fhir/observation-category"
                            }
                        ], 
                        "text": "Laboratory"
                    }
                ], 
                "code": {
                    "coding": [
                        {
                            "code": "2028-9", 
                            "display": "CO2 SerPl-sCnc", 
                            "system": "http://loinc.org"
                        }
                    ], 
                    "text": "CO2 SerPl-sCnc"
                }, 
                "effectiveDateTime": "2005-07-05", 
                "id": "ehealth-1710-lab", 
                "identifier": [
                    {
                        "system": "http://www.bmc.nl/zorgportal/identifiers/observations", 
                        "use": "official", 
                        "value": "ehealth-1710-lab"
                    }
                ], 
                "performer": [
                    {
                        "reference": "Practitioner/ehealth-Practitioner-71482713"
                    }
                ], 
                "referenceRange": [
                    {
                        "high": {
                            "code": "mmol/L", 
                            "system": "http://unitsofmeasure.org", 
                            "unit": "mmol/L", 
                            "value": 29.0
                        }, 
                        "low": {
                            "code": "mmol/L", 
                            "system": "http://unitsofmeasure.org", 
                            "unit": "mmol/L", 
                            "value": 22.0
                        }, 
                        "type": {
                            "coding": [
                                {
                                    "code": "normal", 
                                    "display": "Normal Range", 
                                    "system": "http://hl7.org/fhir/referencerange-meaning"
                                }
                            ], 
                            "text": "Normal Range"
                        }
                    }
                ], 
                "resourceType": "Observation", 
                "status": "unknown", 
                "subject": {
                    "reference": "Patient/ehealth-1134281"
                }, 
                "text": {
                    "div": "<div xmlns=\"http://www.w3.org/1999/xhtml\">2005-07-05: CO2 SerPl-sCnc = 24 mmol/L</div>", 
                    "status": "generated"
                }, 
                "valueQuantity": {
                    "code": "mmol/L", 
                    "system": "http://unitsofmeasure.org", 
                    "unit": "mmol/L", 
                    "value": 24.0
                }
            }
        }, 
        {
            "request": {
                "method": "PUT", 
                "url": "Observation/ehealth-1711-lab"
            }, 
            "resource": {
                "category": [
                    {
                        "coding": [
                            {
                                "code": "laboratory", 
                                "display": "Laboratory", 
                                "system": "http://hl7.org/fhir/observation-category"
                            }
                        ], 
                        "text": "Laboratory"
                    }
                ], 
                "code": {
                    "coding": [
                        {
                            "code": "26498-6", 
                            "display": "Myelocytes NFr Bld", 
                            "system": "http://loinc.org"
                        }
                    ], 
                    "text": "Myelocytes NFr Bld"
                }, 
                "effectiveDateTime": "2005-07-05", 
                "id": "ehealth-1711-lab", 
                "identifier": [
                    {
                        "system": "http://www.bmc.nl/zorgportal/identifiers/observations", 
                        "use": "official", 
                        "value": "ehealth-1711-lab"
                    }
                ], 
                "performer": [
                    {
                        "reference": "Practitioner/ehealth-Practitioner-71482713"
                    }
                ], 
                "referenceRange": [
                    {
                        "high": {
                            "code": "%", 
                            "system": "http://unitsofmeasure.org", 
                            "unit": "%", 
                            "value": 0.0
                        }, 
                        "low": {
                            "code": "%", 
                            "system": "http://unitsofmeasure.org", 
                            "unit": "%", 
                            "value": 0.0
                        }, 
                        "type": {
                            "coding": [
                                {
                                    "code": "normal", 
                                    "display": "Normal Range", 
                                    "system": "http://hl7.org/fhir/referencerange-meaning"
                                }
                            ], 
                            "text": "Normal Range"
                        }
                    }
                ], 
                "resourceType": "Observation", 
                "status": "unknown", 
                "subject": {
                    "reference": "Patient/ehealth-1134281"
                }, 
                "text": {
                    "div": "<div xmlns=\"http://www.w3.org/1999/xhtml\">2005-07-05: Myelocytes NFr Bld = 1 %</div>", 
                    "status": "generated"
                }, 
                "valueQuantity": {
                    "code": "%", 
                    "system": "http://unitsofmeasure.org", 
                    "unit": "%", 
                    "value": 1.0
                }
            }
        }, 
        {
            "request": {
                "method": "PUT", 
                "url": "Observation/ehealth-1712-lab"
            }, 
            "resource": {
                "category": [
                    {
                        "coding": [
                            {
                                "code": "laboratory", 
                                "display": "Laboratory", 
                                "system": "http://hl7.org/fhir/observation-category"
                            }
                        ], 
                        "text": "Laboratory"
                    }
                ], 
                "code": {
                    "coding": [
                        {
                            "code": "26508-2", 
                            "display": "Neuts Band NFr Bld", 
                            "system": "http://loinc.org"
                        }
                    ], 
                    "text": "Neuts Band NFr Bld"
                }, 
                "effectiveDateTime": "2005-07-05", 
                "id": "ehealth-1712-lab", 
                "identifier": [
                    {
                        "system": "http://www.bmc.nl/zorgportal/identifiers/observations", 
                        "use": "official", 
                        "value": "ehealth-1712-lab"
                    }
                ], 
                "performer": [
                    {
                        "reference": "Practitioner/ehealth-Practitioner-71482713"
                    }
                ], 
                "referenceRange": [
                    {
                        "high": {
                            "code": "%", 
                            "system": "http://unitsofmeasure.org", 
                            "unit": "%", 
                            "value": 14.0
                        }, 
                        "low": {
                            "code": "%", 
                            "system": "http://unitsofmeasure.org", 
                            "unit": "%", 
                            "value": 4.0
                        }, 
                        "type": {
                            "coding": [
                                {
                                    "code": "normal", 
                                    "display": "Normal Range", 
                                    "system": "http://hl7.org/fhir/referencerange-meaning"
                                }
                            ], 
                            "text": "Normal Range"
                        }
                    }
                ], 
                "resourceType": "Observation", 
                "status": "unknown", 
                "subject": {
                    "reference": "Patient/ehealth-1134281"
                }, 
                "text": {
                    "div": "<div xmlns=\"http://www.w3.org/1999/xhtml\">2005-07-05: Neuts Band NFr Bld = 2 %</div>", 
                    "status": "generated"
                }, 
                "valueQuantity": {
                    "code": "%", 
                    "system": "http://unitsofmeasure.org", 
                    "unit": "%", 
                    "value": 2.0
                }
            }
        }, 
        {
            "request": {
                "method": "PUT", 
                "url": "Observation/ehealth-1713-lab"
            }, 
            "resource": {
                "category": [
                    {
                        "coding": [
                            {
                                "code": "laboratory", 
                                "display": "Laboratory", 
                                "system": "http://hl7.org/fhir/observation-category"
                            }
                        ], 
                        "text": "Laboratory"
                    }
                ], 
                "code": {
                    "coding": [
                        {
                            "code": "26478-8", 
                            "display": "Lymphocytes NFr Bld", 
                            "system": "http://loinc.org"
                        }
                    ], 
                    "text": "Lymphocytes NFr Bld"
                }, 
                "effectiveDateTime": "2005-07-05", 
                "id": "ehealth-1713-lab", 
                "identifier": [
                    {
                        "system": "http://www.bmc.nl/zorgportal/identifiers/observations", 
                        "use": "official", 
                        "value": "ehealth-1713-lab"
                    }
                ], 
                "performer": [
                    {
                        "reference": "Practitioner/ehealth-Practitioner-71482713"
                    }
                ], 
                "referenceRange": [
                    {
                        "high": {
                            "code": "%", 
                            "system": "http://unitsofmeasure.org", 
                            "unit": "%", 
                            "value": 38.0
                        }, 
                        "low": {
                            "code": "%", 
                            "system": "http://unitsofmeasure.org", 
                            "unit": "%", 
                            "value": 18.0
                        }, 
                        "type": {
                            "coding": [
                                {
                                    "code": "normal", 
                                    "display": "Normal Range", 
                                    "system": "http://hl7.org/fhir/referencerange-meaning"
                                }
                            ], 
                            "text": "Normal Range"
                        }
                    }
                ], 
                "resourceType": "Observation", 
                "status": "unknown", 
                "subject": {
                    "reference": "Patient/ehealth-1134281"
                }, 
                "text": {
                    "div": "<div xmlns=\"http://www.w3.org/1999/xhtml\">2005-07-05: Lymphocytes NFr Bld = 43 %</div>", 
                    "status": "generated"
                }, 
                "valueQuantity": {
                    "code": "%", 
                    "system": "http://unitsofmeasure.org", 
                    "unit": "%", 
                    "value": 43.0
                }
            }
        }, 
        {
            "request": {
                "method": "PUT", 
                "url": "Observation/ehealth-1714-lab"
            }, 
            "resource": {
                "category": [
                    {
                        "coding": [
                            {
                                "code": "laboratory", 
                                "display": "Laboratory", 
                                "system": "http://hl7.org/fhir/observation-category"
                            }
                        ], 
                        "text": "Laboratory"
                    }
                ], 
                "code": {
                    "coding": [
                        {
                            "code": "26485-3", 
                            "display": "Monocytes NFr Bld", 
                            "system": "http://loinc.org"
                        }
                    ], 
                    "text": "Monocytes NFr Bld"
                }, 
                "effectiveDateTime": "2005-07-05", 
                "id": "ehealth-1714-lab", 
                "identifier": [
                    {
                        "system": "http://www.bmc.nl/zorgportal/identifiers/observations", 
                        "use": "official", 
                        "value": "ehealth-1714-lab"
                    }
                ], 
                "performer": [
                    {
                        "reference": "Practitioner/ehealth-Practitioner-71482713"
                    }
                ], 
                "referenceRange": [
                    {
                        "high": {
                            "code": "%", 
                            "system": "http://unitsofmeasure.org", 
                            "unit": "%", 
                            "value": 12.0
                        }, 
                        "low": {
                            "code": "%", 
                            "system": "http://unitsofmeasure.org", 
                            "unit": "%", 
                            "value": 1.0
                        }, 
                        "type": {
                            "coding": [
                                {
                                    "code": "normal", 
                                    "display": "Normal Range", 
                                    "system": "http://hl7.org/fhir/referencerange-meaning"
                                }
                            ], 
                            "text": "Normal Range"
                        }
                    }
                ], 
                "resourceType": "Observation", 
                "status": "unknown", 
                "subject": {
                    "reference": "Patient/ehealth-1134281"
                }, 
                "text": {
                    "div": "<div xmlns=\"http://www.w3.org/1999/xhtml\">2005-07-05: Monocytes NFr Bld = 8 %</div>", 
                    "status": "generated"
                }, 
                "valueQuantity": {
                    "code": "%", 
                    "system": "http://unitsofmeasure.org", 
                    "unit": "%", 
                    "value": 8.0
                }
            }
        }, 
        {
            "request": {
                "method": "PUT", 
                "url": "Observation/ehealth-1715-lab"
            }, 
            "resource": {
                "category": [
                    {
                        "coding": [
                            {
                                "code": "laboratory", 
                                "display": "Laboratory", 
                                "system": "http://hl7.org/fhir/observation-category"
                            }
                        ], 
                        "text": "Laboratory"
                    }
                ], 
                "code": {
                    "coding": [
                        {
                            "code": "26450-7", 
                            "display": "Eosinophil NFr Bld", 
                            "system": "http://loinc.org"
                        }
                    ], 
                    "text": "Eosinophil NFr Bld"
                }, 
                "effectiveDateTime": "2005-07-05", 
                "id": "ehealth-1715-lab", 
                "identifier": [
                    {
                        "system": "http://www.bmc.nl/zorgportal/identifiers/observations", 
                        "use": "official", 
                        "value": "ehealth-1715-lab"
                    }
                ], 
                "performer": [
                    {
                        "reference": "Practitioner/ehealth-Practitioner-71482713"
                    }
                ], 
                "referenceRange": [
                    {
                        "high": {
                            "code": "%", 
                            "system": "http://unitsofmeasure.org", 
                            "unit": "%", 
                            "value": 4.0
                        }, 
                        "low": {
                            "code": "%", 
                            "system": "http://unitsofmeasure.org", 
                            "unit": "%", 
                            "value": 0.0
                        }, 
                        "type": {
                            "coding": [
                                {
                                    "code": "normal", 
                                    "display": "Normal Range", 
                                    "system": "http://hl7.org/fhir/referencerange-meaning"
                                }
                            ], 
                            "text": "Normal Range"
                        }
                    }
                ], 
                "resourceType": "Observation", 
                "status": "unknown", 
                "subject": {
                    "reference": "Patient/ehealth-1134281"
                }, 
                "text": {
                    "div": "<div xmlns=\"http://www.w3.org/1999/xhtml\">2005-07-05: Eosinophil NFr Bld = 3 %</div>", 
                    "status": "generated"
                }, 
                "valueQuantity": {
                    "code": "%", 
                    "system": "http://unitsofmeasure.org", 
                    "unit": "%", 
                    "value": 3.0
                }
            }
        }, 
        {
            "request": {
                "method": "PUT", 
                "url": "Observation/ehealth-1716-lab"
            }, 
            "resource": {
                "category": [
                    {
                        "coding": [
                            {
                                "code": "laboratory", 
                                "display": "Laboratory", 
                                "system": "http://hl7.org/fhir/observation-category"
                            }
                        ], 
                        "text": "Laboratory"
                    }
                ], 
                "code": {
                    "coding": [
                        {
                            "code": "30180-4", 
                            "display": "Basophils NFr Bld", 
                            "system": "http://loinc.org"
                        }
                    ], 
                    "text": "Basophils NFr Bld"
                }, 
                "effectiveDateTime": "2005-07-05", 
                "id": "ehealth-1716-lab", 
                "identifier": [
                    {
                        "system": "http://www.bmc.nl/zorgportal/identifiers/observations", 
                        "use": "official", 
                        "value": "ehealth-1716-lab"
                    }
                ], 
                "performer": [
                    {
                        "reference": "Practitioner/ehealth-Practitioner-71482713"
                    }
                ], 
                "referenceRange": [
                    {
                        "high": {
                            "code": "%", 
                            "system": "http://unitsofmeasure.org", 
                            "unit": "%", 
                            "value": 2.0
                        }, 
                        "low": {
                            "code": "%", 
                            "system": "http://unitsofmeasure.org", 
                            "unit": "%", 
                            "value": 0.0
                        }, 
                        "type": {
                            "coding": [
                                {
                                    "code": "normal", 
                                    "display": "Normal Range", 
                                    "system": "http://hl7.org/fhir/referencerange-meaning"
                                }
                            ], 
                            "text": "Normal Range"
                        }
                    }
                ], 
                "resourceType": "Observation", 
                "status": "unknown", 
                "subject": {
                    "reference": "Patient/ehealth-1134281"
                }, 
                "text": {
                    "div": "<div xmlns=\"http://www.w3.org/1999/xhtml\">2005-07-05: Basophils NFr Bld = 0 %</div>", 
                    "status": "generated"
                }, 
                "valueQuantity": {
                    "code": "%", 
                    "system": "http://unitsofmeasure.org", 
                    "unit": "%", 
                    "value": 0.0
                }
            }
        }, 
        {
            "request": {
                "method": "PUT", 
                "url": "Observation/ehealth-1717-lab"
            }, 
            "resource": {
                "category": [
                    {
                        "coding": [
                            {
                                "code": "laboratory", 
                                "display": "Laboratory", 
                                "system": "http://hl7.org/fhir/observation-category"
                            }
                        ], 
                        "text": "Laboratory"
                    }
                ], 
                "code": {
                    "coding": [
                        {
                            "code": "718-7", 
                            "display": "Hgb Bld-mCnc", 
                            "system": "http://loinc.org"
                        }
                    ], 
                    "text": "Hgb Bld-mCnc"
                }, 
                "effectiveDateTime": "2005-07-05", 
                "id": "ehealth-1717-lab", 
                "identifier": [
                    {
                        "system": "http://www.bmc.nl/zorgportal/identifiers/observations", 
                        "use": "official", 
                        "value": "ehealth-1717-lab"
                    }
                ], 
                "performer": [
                    {
                        "reference": "Practitioner/ehealth-Practitioner-71482713"
                    }
                ], 
                "referenceRange": [
                    {
                        "high": {
                            "code": "g/dL", 
                            "system": "http://unitsofmeasure.org", 
                            "unit": "g/dL", 
                            "value": 21.5
                        }, 
                        "low": {
                            "code": "g/dL", 
                            "system": "http://unitsofmeasure.org", 
                            "unit": "g/dL", 
                            "value": 16.5
                        }, 
                        "type": {
                            "coding": [
                                {
                                    "code": "normal", 
                                    "display": "Normal Range", 
                                    "system": "http://hl7.org/fhir/referencerange-meaning"
                                }
                            ], 
                            "text": "Normal Range"
                        }
                    }
                ], 
                "resourceType": "Observation", 
                "status": "unknown", 
                "subject": {
                    "reference": "Patient/ehealth-1134281"
                }, 
                "text": {
                    "div": "<div xmlns=\"http://www.w3.org/1999/xhtml\">2005-07-05: Hgb Bld-mCnc = 17 g/dL</div>", 
                    "status": "generated"
                }, 
                "valueQuantity": {
                    "code": "g/dL", 
                    "system": "http://unitsofmeasure.org", 
                    "unit": "g/dL", 
                    "value": 17.0
                }
            }
        }, 
        {
            "request": {
                "method": "PUT", 
                "url": "Observation/ehealth-1718-lab"
            }, 
            "resource": {
                "category": [
                    {
                        "coding": [
                            {
                                "code": "laboratory", 
                                "display": "Laboratory", 
                                "system": "http://hl7.org/fhir/observation-category"
                            }
                        ], 
                        "text": "Laboratory"
                    }
                ], 
                "code": {
                    "coding": [
                        {
                            "code": "10466-1", 
                            "display": "Anion Gap3 SerPl-sCnc", 
                            "system": "http://loinc.org"
                        }
                    ], 
                    "text": "Anion Gap3 SerPl-sCnc"
                }, 
                "effectiveDateTime": "2005-07-05", 
                "id": "ehealth-1718-lab", 
                "identifier": [
                    {
                        "system": "http://www.bmc.nl/zorgportal/identifiers/observations", 
                        "use": "official", 
                        "value": "ehealth-1718-lab"
                    }
                ], 
                "performer": [
                    {
                        "reference": "Practitioner/ehealth-Practitioner-71482713"
                    }
                ], 
                "referenceRange": [
                    {
                        "high": {
                            "code": "mmol/L", 
                            "system": "http://unitsofmeasure.org", 
                            "unit": "mmol/L", 
                            "value": 0.0
                        }, 
                        "low": {
                            "code": "mmol/L", 
                            "system": "http://unitsofmeasure.org", 
                            "unit": "mmol/L", 
                            "value": 0.0
                        }, 
                        "type": {
                            "coding": [
                                {
                                    "code": "normal", 
                                    "display": "Normal Range", 
                                    "system": "http://hl7.org/fhir/referencerange-meaning"
                                }
                            ], 
                            "text": "Normal Range"
                        }
                    }
                ], 
                "resourceType": "Observation", 
                "status": "unknown", 
                "subject": {
                    "reference": "Patient/ehealth-1134281"
                }, 
                "text": {
                    "div": "<div xmlns=\"http://www.w3.org/1999/xhtml\">2005-07-05: Anion Gap3 SerPl-sCnc = 8 mmol/L</div>", 
                    "status": "generated"
                }, 
                "valueQuantity": {
                    "code": "mmol/L", 
                    "system": "http://unitsofmeasure.org", 
                    "unit": "mmol/L", 
                    "value": 8.0
                }
            }
        }, 
        {
            "request": {
                "method": "PUT", 
                "url": "Observation/ehealth-1719-lab"
            }, 
            "resource": {
                "category": [
                    {
                        "coding": [
                            {
                                "code": "laboratory", 
                                "display": "Laboratory", 
                                "system": "http://hl7.org/fhir/observation-category"
                            }
                        ], 
                        "text": "Laboratory"
                    }
                ], 
                "code": {
                    "coding": [
                        {
                            "code": "28542-9", 
                            "display": "PMV Bld", 
                            "system": "http://loinc.org"
                        }
                    ], 
                    "text": "PMV Bld"
                }, 
                "effectiveDateTime": "2005-07-05", 
                "id": "ehealth-1719-lab", 
                "identifier": [
                    {
                        "system": "http://www.bmc.nl/zorgportal/identifiers/observations", 
                        "use": "official", 
                        "value": "ehealth-1719-lab"
                    }
                ], 
                "performer": [
                    {
                        "reference": "Practitioner/ehealth-Practitioner-71482713"
                    }
                ], 
                "referenceRange": [
                    {
                        "high": {
                            "code": "fL", 
                            "system": "http://unitsofmeasure.org", 
                            "unit": "fL", 
                            "value": 9.6
                        }, 
                        "low": {
                            "code": "fL", 
                            "system": "http://unitsofmeasure.org", 
                            "unit": "fL", 
                            "value": 6.3
                        }, 
                        "type": {
                            "coding": [
                                {
                                    "code": "normal", 
                                    "display": "Normal Range", 
                                    "system": "http://hl7.org/fhir/referencerange-meaning"
                                }
                            ], 
                            "text": "Normal Range"
                        }
                    }
                ], 
                "resourceType": "Observation", 
                "status": "unknown", 
                "subject": {
                    "reference": "Patient/ehealth-1134281"
                }, 
                "text": {
                    "div": "<div xmlns=\"http://www.w3.org/1999/xhtml\">2005-07-05: PMV Bld = 7.8 fL</div>", 
                    "status": "generated"
                }, 
                "valueQuantity": {
                    "code": "fL", 
                    "system": "http://unitsofmeasure.org", 
                    "unit": "fL", 
                    "value": 7.8
                }
            }
        }, 
        {
            "request": {
                "method": "PUT", 
                "url": "Observation/ehealth-1720-lab"
            }, 
            "resource": {
                "category": [
                    {
                        "coding": [
                            {
                                "code": "laboratory", 
                                "display": "Laboratory", 
                                "system": "http://hl7.org/fhir/observation-category"
                            }
                        ], 
                        "text": "Laboratory"
                    }
                ], 
                "code": {
                    "coding": [
                        {
                            "code": "30385-9", 
                            "display": "RDW RBC-Rto", 
                            "system": "http://loinc.org"
                        }
                    ], 
                    "text": "RDW RBC-Rto"
                }, 
                "effectiveDateTime": "2005-07-05", 
                "id": "ehealth-1720-lab", 
                "identifier": [
                    {
                        "system": "http://www.bmc.nl/zorgportal/identifiers/observations", 
                        "use": "official", 
                        "value": "ehealth-1720-lab"
                    }
                ], 
                "performer": [
                    {
                        "reference": "Practitioner/ehealth-Practitioner-71482713"
                    }
                ], 
                "referenceRange": [
                    {
                        "high": {
                            "code": "%", 
                            "system": "http://unitsofmeasure.org", 
                            "unit": "%", 
                            "value": 14.5
                        }, 
                        "low": {
                            "code": "%", 
                            "system": "http://unitsofmeasure.org", 
                            "unit": "%", 
                            "value": 11.5
                        }, 
                        "type": {
                            "coding": [
                                {
                                    "code": "normal", 
                                    "display": "Normal Range", 
                                    "system": "http://hl7.org/fhir/referencerange-meaning"
                                }
                            ], 
                            "text": "Normal Range"
                        }
                    }
                ], 
                "resourceType": "Observation", 
                "status": "unknown", 
                "subject": {
                    "reference": "Patient/ehealth-1134281"
                }, 
                "text": {
                    "div": "<div xmlns=\"http://www.w3.org/1999/xhtml\">2005-07-05: RDW RBC-Rto = 16.8 %</div>", 
                    "status": "generated"
                }, 
                "valueQuantity": {
                    "code": "%", 
                    "system": "http://unitsofmeasure.org", 
                    "unit": "%", 
                    "value": 16.8
                }
            }
        }, 
        {
            "request": {
                "method": "PUT", 
                "url": "Observation/ehealth-1721-lab"
            }, 
            "resource": {
                "category": [
                    {
                        "coding": [
                            {
                                "code": "laboratory", 
                                "display": "Laboratory", 
                                "system": "http://hl7.org/fhir/observation-category"
                            }
                        ], 
                        "text": "Laboratory"
                    }
                ], 
                "code": {
                    "coding": [
                        {
                            "code": "19048-8", 
                            "display": "nRBC/100 WBC Bld-Rto", 
                            "system": "http://loinc.org"
                        }
                    ], 
                    "text": "nRBC/100 WBC Bld-Rto"
                }, 
                "effectiveDateTime": "2005-07-05", 
                "id": "ehealth-1721-lab", 
                "identifier": [
                    {
                        "system": "http://www.bmc.nl/zorgportal/identifiers/observations", 
                        "use": "official", 
                        "value": "ehealth-1721-lab"
                    }
                ], 
                "performer": [
                    {
                        "reference": "Practitioner/ehealth-Practitioner-71482713"
                    }
                ], 
                "referenceRange": [
                    {
                        "high": {
                            "code": "#/100 WBC", 
                            "system": "http://unitsofmeasure.org", 
                            "unit": "#/100 WBC", 
                            "value": 24.0
                        }, 
                        "low": {
                            "code": "#/100 WBC", 
                            "system": "http://unitsofmeasure.org", 
                            "unit": "#/100 WBC", 
                            "value": 0.0
                        }, 
                        "type": {
                            "coding": [
                                {
                                    "code": "normal", 
                                    "display": "Normal Range", 
                                    "system": "http://hl7.org/fhir/referencerange-meaning"
                                }
                            ], 
                            "text": "Normal Range"
                        }
                    }
                ], 
                "resourceType": "Observation", 
                "status": "unknown", 
                "subject": {
                    "reference": "Patient/ehealth-1134281"
                }, 
                "text": {
                    "div": "<div xmlns=\"http://www.w3.org/1999/xhtml\">2005-07-05: nRBC/100 WBC Bld-Rto = 5 #/100 WBC</div>", 
                    "status": "generated"
                }, 
                "valueQuantity": {
                    "code": "#/100 WBC", 
                    "system": "http://unitsofmeasure.org", 
                    "unit": "#/100 WBC", 
                    "value": 5.0
                }
            }
        }, 
        {
            "request": {
                "method": "PUT", 
                "url": "Observation/ehealth-1722-lab"
            }, 
            "resource": {
                "category": [
                    {
                        "coding": [
                            {
                                "code": "laboratory", 
                                "display": "Laboratory", 
                                "system": "http://hl7.org/fhir/observation-category"
                            }
                        ], 
                        "text": "Laboratory"
                    }
                ], 
                "code": {
                    "coding": [
                        {
                            "code": "770-8", 
                            "display": "Neutrophils NFr Bld Auto", 
                            "system": "http://loinc.org"
                        }
                    ], 
                    "text": "Neutrophils NFr Bld Auto"
                }, 
                "effectiveDateTime": "2005-07-05", 
                "id": "ehealth-1722-lab", 
                "identifier": [
                    {
                        "system": "http://www.bmc.nl/zorgportal/identifiers/observations", 
                        "use": "official", 
                        "value": "ehealth-1722-lab"
                    }
                ], 
                "performer": [
                    {
                        "reference": "Practitioner/ehealth-Practitioner-71482713"
                    }
                ], 
                "referenceRange": [
                    {
                        "high": {
                            "code": "%", 
                            "system": "http://unitsofmeasure.org", 
                            "unit": "%", 
                            "value": 67.0
                        }, 
                        "low": {
                            "code": "%", 
                            "system": "http://unitsofmeasure.org", 
                            "unit": "%", 
                            "value": 37.0
                        }, 
                        "type": {
                            "coding": [
                                {
                                    "code": "normal", 
                                    "display": "Normal Range", 
                                    "system": "http://hl7.org/fhir/referencerange-meaning"
                                }
                            ], 
                            "text": "Normal Range"
                        }
                    }
                ], 
                "resourceType": "Observation", 
                "status": "unknown", 
                "subject": {
                    "reference": "Patient/ehealth-1134281"
                }, 
                "text": {
                    "div": "<div xmlns=\"http://www.w3.org/1999/xhtml\">2005-07-05: Neutrophils NFr Bld Auto = 40 %</div>", 
                    "status": "generated"
                }, 
                "valueQuantity": {
                    "code": "%", 
                    "system": "http://unitsofmeasure.org", 
                    "unit": "%", 
                    "value": 40.0
                }
            }
        }, 
        {
            "request": {
                "method": "PUT", 
                "url": "Observation/ehealth-1723-lab"
            }, 
            "resource": {
                "category": [
                    {
                        "coding": [
                            {
                                "code": "laboratory", 
                                "display": "Laboratory", 
                                "system": "http://hl7.org/fhir/observation-category"
                            }
                        ], 
                        "text": "Laboratory"
                    }
                ], 
                "code": {
                    "coding": [
                        {
                            "code": "6742-1", 
                            "display": "RBC morph Bld", 
                            "system": "http://loinc.org"
                        }
                    ], 
                    "text": "RBC morph Bld"
                }, 
                "effectiveDateTime": "2005-07-05", 
                "id": "ehealth-1723-lab", 
                "identifier": [
                    {
                        "system": "http://www.bmc.nl/zorgportal/identifiers/observations", 
                        "use": "official", 
                        "value": "ehealth-1723-lab"
                    }
                ], 
                "performer": [
                    {
                        "reference": "Practitioner/ehealth-Practitioner-71482713"
                    }
                ], 
                "resourceType": "Observation", 
                "status": "unknown", 
                "subject": {
                    "reference": "Patient/ehealth-1134281"
                }, 
                "text": {
                    "div": "<div xmlns=\"http://www.w3.org/1999/xhtml\">2005-07-05: RBC morph Bld = Normal </div>", 
                    "status": "generated"
                }, 
                "valueString": "Normal"
            }
        }, 
        {
            "request": {
                "method": "PUT", 
                "url": "Observation/ehealth-1724-lab"
            }, 
            "resource": {
                "category": [
                    {
                        "coding": [
                            {
                                "code": "laboratory", 
                                "display": "Laboratory", 
                                "system": "http://hl7.org/fhir/observation-category"
                            }
                        ], 
                        "text": "Laboratory"
                    }
                ], 
                "code": {
                    "coding": [
                        {
                            "code": "2339-0", 
                            "display": "Glucose Bld-mCnc", 
                            "system": "http://loinc.org"
                        }
                    ], 
                    "text": "Glucose Bld-mCnc"
                }, 
                "effectiveDateTime": "2005-07-05", 
                "id": "ehealth-1724-lab", 
                "identifier": [
                    {
                        "system": "http://www.bmc.nl/zorgportal/identifiers/observations", 
                        "use": "official", 
                        "value": "ehealth-1724-lab"
                    }
                ], 
                "performer": [
                    {
                        "reference": "Practitioner/ehealth-Practitioner-71482713"
                    }
                ], 
                "referenceRange": [
                    {
                        "high": {
                            "code": "mg/dL", 
                            "system": "http://unitsofmeasure.org", 
                            "unit": "mg/dL", 
                            "value": 109.0
                        }, 
                        "low": {
                            "code": "mg/dL", 
                            "system": "http://unitsofmeasure.org", 
                            "unit": "mg/dL", 
                            "value": 40.0
                        }, 
                        "type": {
                            "coding": [
                                {
                                    "code": "normal", 
                                    "display": "Normal Range", 
                                    "system": "http://hl7.org/fhir/referencerange-meaning"
                                }
                            ], 
                            "text": "Normal Range"
                        }
                    }
                ], 
                "resourceType": "Observation", 
                "status": "unknown", 
                "subject": {
                    "reference": "Patient/ehealth-1134281"
                }, 
                "text": {
                    "div": "<div xmlns=\"http://www.w3.org/1999/xhtml\">2005-07-05: Glucose Bld-mCnc = 89 mg/dL</div>", 
                    "status": "generated"
                }, 
                "valueQuantity": {
                    "code": "mg/dL", 
                    "system": "http://unitsofmeasure.org", 
                    "unit": "mg/dL", 
                    "value": 89.0
                }
            }
        }, 
        {
            "request": {
                "method": "PUT", 
                "url": "Observation/ehealth-1725-lab"
            }, 
            "resource": {
                "category": [
                    {
                        "coding": [
                            {
                                "code": "laboratory", 
                                "display": "Laboratory", 
                                "system": "http://hl7.org/fhir/observation-category"
                            }
                        ], 
                        "text": "Laboratory"
                    }
                ], 
                "code": {
                    "coding": [
                        {
                            "code": "2339-0", 
                            "display": "Glucose Bld-mCnc", 
                            "system": "http://loinc.org"
                        }
                    ], 
                    "text": "Glucose Bld-mCnc"
                }, 
                "effectiveDateTime": "2005-07-05", 
                "id": "ehealth-1725-lab", 
                "identifier": [
                    {
                        "system": "http://www.bmc.nl/zorgportal/identifiers/observations", 
                        "use": "official", 
                        "value": "ehealth-1725-lab"
                    }
                ], 
                "performer": [
                    {
                        "reference": "Practitioner/ehealth-Practitioner-71482713"
                    }
                ], 
                "referenceRange": [
                    {
                        "high": {
                            "code": "mg/dL", 
                            "system": "http://unitsofmeasure.org", 
                            "unit": "mg/dL", 
                            "value": 109.0
                        }, 
                        "low": {
                            "code": "mg/dL", 
                            "system": "http://unitsofmeasure.org", 
                            "unit": "mg/dL", 
                            "value": 40.0
                        }, 
                        "type": {
                            "coding": [
                                {
                                    "code": "normal", 
                                    "display": "Normal Range", 
                                    "system": "http://hl7.org/fhir/referencerange-meaning"
                                }
                            ], 
                            "text": "Normal Range"
                        }
                    }
                ], 
                "resourceType": "Observation", 
                "status": "unknown", 
                "subject": {
                    "reference": "Patient/ehealth-1134281"
                }, 
                "text": {
                    "div": "<div xmlns=\"http://www.w3.org/1999/xhtml\">2005-07-05: Glucose Bld-mCnc = 86 mg/dL</div>", 
                    "status": "generated"
                }, 
                "valueQuantity": {
                    "code": "mg/dL", 
                    "system": "http://unitsofmeasure.org", 
                    "unit": "mg/dL", 
                    "value": 86.0
                }
            }
        }, 
        {
            "request": {
                "method": "PUT", 
                "url": "Observation/ehealth-1726-lab"
            }, 
            "resource": {
                "category": [
                    {
                        "coding": [
                            {
                                "code": "laboratory", 
                                "display": "Laboratory", 
                                "system": "http://hl7.org/fhir/observation-category"
                            }
                        ], 
                        "text": "Laboratory"
                    }
                ], 
                "code": {
                    "coding": [
                        {
                            "code": "2339-0", 
                            "display": "Glucose Bld-mCnc", 
                            "system": "http://loinc.org"
                        }
                    ], 
                    "text": "Glucose Bld-mCnc"
                }, 
                "effectiveDateTime": "2005-07-05", 
                "id": "ehealth-1726-lab", 
                "identifier": [
                    {
                        "system": "http://www.bmc.nl/zorgportal/identifiers/observations", 
                        "use": "official", 
                        "value": "ehealth-1726-lab"
                    }
                ], 
                "performer": [
                    {
                        "reference": "Practitioner/ehealth-Practitioner-71482713"
                    }
                ], 
                "referenceRange": [
                    {
                        "high": {
                            "code": "mg/dL", 
                            "system": "http://unitsofmeasure.org", 
                            "unit": "mg/dL", 
                            "value": 109.0
                        }, 
                        "low": {
                            "code": "mg/dL", 
                            "system": "http://unitsofmeasure.org", 
                            "unit": "mg/dL", 
                            "value": 40.0
                        }, 
                        "type": {
                            "coding": [
                                {
                                    "code": "normal", 
                                    "display": "Normal Range", 
                                    "system": "http://hl7.org/fhir/referencerange-meaning"
                                }
                            ], 
                            "text": "Normal Range"
                        }
                    }
                ], 
                "resourceType": "Observation", 
                "status": "unknown", 
                "subject": {
                    "reference": "Patient/ehealth-1134281"
                }, 
                "text": {
                    "div": "<div xmlns=\"http://www.w3.org/1999/xhtml\">2005-07-05: Glucose Bld-mCnc = 82 mg/dL</div>", 
                    "status": "generated"
                }, 
                "valueQuantity": {
                    "code": "mg/dL", 
                    "system": "http://unitsofmeasure.org", 
                    "unit": "mg/dL", 
                    "value": 82.0
                }
            }
        }, 
        {
            "request": {
                "method": "PUT", 
                "url": "Observation/ehealth-1727-lab"
            }, 
            "resource": {
                "category": [
                    {
                        "coding": [
                            {
                                "code": "laboratory", 
                                "display": "Laboratory", 
                                "system": "http://hl7.org/fhir/observation-category"
                            }
                        ], 
                        "text": "Laboratory"
                    }
                ], 
                "code": {
                    "coding": [
                        {
                            "code": "2339-0", 
                            "display": "Glucose Bld-mCnc", 
                            "system": "http://loinc.org"
                        }
                    ], 
                    "text": "Glucose Bld-mCnc"
                }, 
                "effectiveDateTime": "2005-07-05", 
                "id": "ehealth-1727-lab", 
                "identifier": [
                    {
                        "system": "http://www.bmc.nl/zorgportal/identifiers/observations", 
                        "use": "official", 
                        "value": "ehealth-1727-lab"
                    }
                ], 
                "performer": [
                    {
                        "reference": "Practitioner/ehealth-Practitioner-71482713"
                    }
                ], 
                "referenceRange": [
                    {
                        "high": {
                            "code": "mg/dL", 
                            "system": "http://unitsofmeasure.org", 
                            "unit": "mg/dL", 
                            "value": 109.0
                        }, 
                        "low": {
                            "code": "mg/dL", 
                            "system": "http://unitsofmeasure.org", 
                            "unit": "mg/dL", 
                            "value": 40.0
                        }, 
                        "type": {
                            "coding": [
                                {
                                    "code": "normal", 
                                    "display": "Normal Range", 
                                    "system": "http://hl7.org/fhir/referencerange-meaning"
                                }
                            ], 
                            "text": "Normal Range"
                        }
                    }
                ], 
                "resourceType": "Observation", 
                "status": "unknown", 
                "subject": {
                    "reference": "Patient/ehealth-1134281"
                }, 
                "text": {
                    "div": "<div xmlns=\"http://www.w3.org/1999/xhtml\">2005-07-05: Glucose Bld-mCnc = 76 mg/dL</div>", 
                    "status": "generated"
                }, 
                "valueQuantity": {
                    "code": "mg/dL", 
                    "system": "http://unitsofmeasure.org", 
                    "unit": "mg/dL", 
                    "value": 76.0
                }
            }
        }, 
        {
            "request": {
                "method": "PUT", 
                "url": "Observation/ehealth-1728-lab"
            }, 
            "resource": {
                "category": [
                    {
                        "coding": [
                            {
                                "code": "laboratory", 
                                "display": "Laboratory", 
                                "system": "http://hl7.org/fhir/observation-category"
                            }
                        ], 
                        "text": "Laboratory"
                    }
                ], 
                "code": {
                    "coding": [
                        {
                            "code": "26464-8", 
                            "display": "WBC # Bld", 
                            "system": "http://loinc.org"
                        }
                    ], 
                    "text": "WBC # Bld"
                }, 
                "effectiveDateTime": "2005-07-05", 
                "id": "ehealth-1728-lab", 
                "identifier": [
                    {
                        "system": "http://www.bmc.nl/zorgportal/identifiers/observations", 
                        "use": "official", 
                        "value": "ehealth-1728-lab"
                    }
                ], 
                "performer": [
                    {
                        "reference": "Practitioner/ehealth-Practitioner-71482713"
                    }
                ], 
                "referenceRange": [
                    {
                        "high": {
                            "code": "10*3/uL", 
                            "system": "http://unitsofmeasure.org", 
                            "unit": "10*3/uL", 
                            "value": 37.0
                        }, 
                        "low": {
                            "code": "10*3/uL", 
                            "system": "http://unitsofmeasure.org", 
                            "unit": "10*3/uL", 
                            "value": 9.0
                        }, 
                        "type": {
                            "coding": [
                                {
                                    "code": "normal", 
                                    "display": "Normal Range", 
                                    "system": "http://hl7.org/fhir/referencerange-meaning"
                                }
                            ], 
                            "text": "Normal Range"
                        }
                    }
                ], 
                "resourceType": "Observation", 
                "status": "unknown", 
                "subject": {
                    "reference": "Patient/ehealth-1134281"
                }, 
                "text": {
                    "div": "<div xmlns=\"http://www.w3.org/1999/xhtml\">2005-07-05: WBC # Bld = 17.7 10*3/uL</div>", 
                    "status": "generated"
                }, 
                "valueQuantity": {
                    "code": "10*3/uL", 
                    "system": "http://unitsofmeasure.org", 
                    "unit": "10*3/uL", 
                    "value": 17.7
                }
            }
        }, 
        {
            "request": {
                "method": "PUT", 
                "url": "Observation/ehealth-1729-lab"
            }, 
            "resource": {
                "category": [
                    {
                        "coding": [
                            {
                                "code": "laboratory", 
                                "display": "Laboratory", 
                                "system": "http://hl7.org/fhir/observation-category"
                            }
                        ], 
                        "text": "Laboratory"
                    }
                ], 
                "code": {
                    "coding": [
                        {
                            "code": "789-8", 
                            "display": "RBC # Bld Auto", 
                            "system": "http://loinc.org"
                        }
                    ], 
                    "text": "RBC # Bld Auto"
                }, 
                "effectiveDateTime": "2005-07-05", 
                "id": "ehealth-1729-lab", 
                "identifier": [
                    {
                        "system": "http://www.bmc.nl/zorgportal/identifiers/observations", 
                        "use": "official", 
                        "value": "ehealth-1729-lab"
                    }
                ], 
                "performer": [
                    {
                        "reference": "Practitioner/ehealth-Practitioner-71482713"
                    }
                ], 
                "referenceRange": [
                    {
                        "high": {
                            "code": "10*6/uL", 
                            "system": "http://unitsofmeasure.org", 
                            "unit": "10*6/uL", 
                            "value": 6.1
                        }, 
                        "low": {
                            "code": "10*6/uL", 
                            "system": "http://unitsofmeasure.org", 
                            "unit": "10*6/uL", 
                            "value": 4.1
                        }, 
                        "type": {
                            "coding": [
                                {
                                    "code": "normal", 
                                    "display": "Normal Range", 
                                    "system": "http://hl7.org/fhir/referencerange-meaning"
                                }
                            ], 
                            "text": "Normal Range"
                        }
                    }
                ], 
                "resourceType": "Observation", 
                "status": "unknown", 
                "subject": {
                    "reference": "Patient/ehealth-1134281"
                }, 
                "text": {
                    "div": "<div xmlns=\"http://www.w3.org/1999/xhtml\">2005-07-05: RBC # Bld Auto = 4.58 10*6/uL</div>", 
                    "status": "generated"
                }, 
                "valueQuantity": {
                    "code": "10*6/uL", 
                    "system": "http://unitsofmeasure.org", 
                    "unit": "10*6/uL", 
                    "value": 4.58
                }
            }
        }, 
        {
            "request": {
                "method": "PUT", 
                "url": "Observation/ehealth-1730-lab"
            }, 
            "resource": {
                "category": [
                    {
                        "coding": [
                            {
                                "code": "laboratory", 
                                "display": "Laboratory", 
                                "system": "http://hl7.org/fhir/observation-category"
                            }
                        ], 
                        "text": "Laboratory"
                    }
                ], 
                "code": {
                    "coding": [
                        {
                            "code": "2345-7", 
                            "display": "Glucose SerPl-mCnc", 
                            "system": "http://loinc.org"
                        }
                    ], 
                    "text": "Glucose SerPl-mCnc"
                }, 
                "effectiveDateTime": "2005-07-05", 
                "id": "ehealth-1730-lab", 
                "identifier": [
                    {
                        "system": "http://www.bmc.nl/zorgportal/identifiers/observations", 
                        "use": "official", 
                        "value": "ehealth-1730-lab"
                    }
                ], 
                "performer": [
                    {
                        "reference": "Practitioner/ehealth-Practitioner-71482713"
                    }
                ], 
                "referenceRange": [
                    {
                        "high": {
                            "code": "mg/dL", 
                            "system": "http://unitsofmeasure.org", 
                            "unit": "mg/dL", 
                            "value": 109.0
                        }, 
                        "low": {
                            "code": "mg/dL", 
                            "system": "http://unitsofmeasure.org", 
                            "unit": "mg/dL", 
                            "value": 40.0
                        }, 
                        "type": {
                            "coding": [
                                {
                                    "code": "normal", 
                                    "display": "Normal Range", 
                                    "system": "http://hl7.org/fhir/referencerange-meaning"
                                }
                            ], 
                            "text": "Normal Range"
                        }
                    }
                ], 
                "resourceType": "Observation", 
                "status": "unknown", 
                "subject": {
                    "reference": "Patient/ehealth-1134281"
                }, 
                "text": {
                    "div": "<div xmlns=\"http://www.w3.org/1999/xhtml\">2005-07-05: Glucose SerPl-mCnc = 62 mg/dL</div>", 
                    "status": "generated"
                }, 
                "valueQuantity": {
                    "code": "mg/dL", 
                    "system": "http://unitsofmeasure.org", 
                    "unit": "mg/dL", 
                    "value": 62.0
                }
            }
        }, 
        {
            "request": {
                "method": "PUT", 
                "url": "Observation/ehealth-1731-lab"
            }, 
            "resource": {
                "category": [
                    {
                        "coding": [
                            {
                                "code": "laboratory", 
                                "display": "Laboratory", 
                                "system": "http://hl7.org/fhir/observation-category"
                            }
                        ], 
                        "text": "Laboratory"
                    }
                ], 
                "code": {
                    "coding": [
                        {
                            "code": "1975-2", 
                            "display": "Bilirub SerPl-mCnc", 
                            "system": "http://loinc.org"
                        }
                    ], 
                    "text": "Bilirub SerPl-mCnc"
                }, 
                "effectiveDateTime": "2005-07-05", 
                "id": "ehealth-1731-lab", 
                "identifier": [
                    {
                        "system": "http://www.bmc.nl/zorgportal/identifiers/observations", 
                        "use": "official", 
                        "value": "ehealth-1731-lab"
                    }
                ], 
                "performer": [
                    {
                        "reference": "Practitioner/ehealth-Practitioner-71482713"
                    }
                ], 
                "referenceRange": [
                    {
                        "high": {
                            "code": "mg/dL", 
                            "system": "http://unitsofmeasure.org", 
                            "unit": "mg/dL", 
                            "value": 6.0
                        }, 
                        "low": {
                            "code": "mg/dL", 
                            "system": "http://unitsofmeasure.org", 
                            "unit": "mg/dL", 
                            "value": 2.0
                        }, 
                        "type": {
                            "coding": [
                                {
                                    "code": "normal", 
                                    "display": "Normal Range", 
                                    "system": "http://hl7.org/fhir/referencerange-meaning"
                                }
                            ], 
                            "text": "Normal Range"
                        }
                    }
                ], 
                "resourceType": "Observation", 
                "status": "unknown", 
                "subject": {
                    "reference": "Patient/ehealth-1134281"
                }, 
                "text": {
                    "div": "<div xmlns=\"http://www.w3.org/1999/xhtml\">2005-07-05: Bilirub SerPl-mCnc = 6.9 mg/dL</div>", 
                    "status": "generated"
                }, 
                "valueQuantity": {
                    "code": "mg/dL", 
                    "system": "http://unitsofmeasure.org", 
                    "unit": "mg/dL", 
                    "value": 6.9
                }
            }
        }, 
        {
            "request": {
                "method": "PUT", 
                "url": "Observation/ehealth-1732-lab"
            }, 
            "resource": {
                "category": [
                    {
                        "coding": [
                            {
                                "code": "laboratory", 
                                "display": "Laboratory", 
                                "system": "http://hl7.org/fhir/observation-category"
                            }
                        ], 
                        "text": "Laboratory"
                    }
                ], 
                "code": {
                    "coding": [
                        {
                            "code": "1975-2", 
                            "display": "Bilirub SerPl-mCnc", 
                            "system": "http://loinc.org"
                        }
                    ], 
                    "text": "Bilirub SerPl-mCnc"
                }, 
                "effectiveDateTime": "2005-07-05", 
                "id": "ehealth-1732-lab", 
                "identifier": [
                    {
                        "system": "http://www.bmc.nl/zorgportal/identifiers/observations", 
                        "use": "official", 
                        "value": "ehealth-1732-lab"
                    }
                ], 
                "performer": [
                    {
                        "reference": "Practitioner/ehealth-Practitioner-71482713"
                    }
                ], 
                "referenceRange": [
                    {
                        "high": {
                            "code": "mg/dL", 
                            "system": "http://unitsofmeasure.org", 
                            "unit": "mg/dL", 
                            "value": 6.0
                        }, 
                        "low": {
                            "code": "mg/dL", 
                            "system": "http://unitsofmeasure.org", 
                            "unit": "mg/dL", 
                            "value": 2.0
                        }, 
                        "type": {
                            "coding": [
                                {
                                    "code": "normal", 
                                    "display": "Normal Range", 
                                    "system": "http://hl7.org/fhir/referencerange-meaning"
                                }
                            ], 
                            "text": "Normal Range"
                        }
                    }
                ], 
                "resourceType": "Observation", 
                "status": "unknown", 
                "subject": {
                    "reference": "Patient/ehealth-1134281"
                }, 
                "text": {
                    "div": "<div xmlns=\"http://www.w3.org/1999/xhtml\">2005-07-05: Bilirub SerPl-mCnc = 5.4 mg/dL</div>", 
                    "status": "generated"
                }, 
                "valueQuantity": {
                    "code": "mg/dL", 
                    "system": "http://unitsofmeasure.org", 
                    "unit": "mg/dL", 
                    "value": 5.4
                }
            }
        }, 
        {
            "request": {
                "method": "PUT", 
                "url": "Observation/ehealth-1733-lab"
            }, 
            "resource": {
                "category": [
                    {
                        "coding": [
                            {
                                "code": "laboratory", 
                                "display": "Laboratory", 
                                "system": "http://hl7.org/fhir/observation-category"
                            }
                        ], 
                        "text": "Laboratory"
                    }
                ], 
                "code": {
                    "coding": [
                        {
                            "code": "3094-0", 
                            "display": "BUN SerPl-mCnc", 
                            "system": "http://loinc.org"
                        }
                    ], 
                    "text": "BUN SerPl-mCnc"
                }, 
                "effectiveDateTime": "2005-07-05", 
                "id": "ehealth-1733-lab", 
                "identifier": [
                    {
                        "system": "http://www.bmc.nl/zorgportal/identifiers/observations", 
                        "use": "official", 
                        "value": "ehealth-1733-lab"
                    }
                ], 
                "performer": [
                    {
                        "reference": "Practitioner/ehealth-Practitioner-71482713"
                    }
                ], 
                "referenceRange": [
                    {
                        "high": {
                            "code": "mg/dL", 
                            "system": "http://unitsofmeasure.org", 
                            "unit": "mg/dL", 
                            "value": 20.0
                        }, 
                        "low": {
                            "code": "mg/dL", 
                            "system": "http://unitsofmeasure.org", 
                            "unit": "mg/dL", 
                            "value": 5.0
                        }, 
                        "type": {
                            "coding": [
                                {
                                    "code": "normal", 
                                    "display": "Normal Range", 
                                    "system": "http://hl7.org/fhir/referencerange-meaning"
                                }
                            ], 
                            "text": "Normal Range"
                        }
                    }
                ], 
                "resourceType": "Observation", 
                "status": "unknown", 
                "subject": {
                    "reference": "Patient/ehealth-1134281"
                }, 
                "text": {
                    "div": "<div xmlns=\"http://www.w3.org/1999/xhtml\">2005-07-05: BUN SerPl-mCnc = 10 mg/dL</div>", 
                    "status": "generated"
                }, 
                "valueQuantity": {
                    "code": "mg/dL", 
                    "system": "http://unitsofmeasure.org", 
                    "unit": "mg/dL", 
                    "value": 10.0
                }
            }
        }, 
        {
            "request": {
                "method": "PUT", 
                "url": "Observation/ehealth-1734-lab"
            }, 
            "resource": {
                "category": [
                    {
                        "coding": [
                            {
                                "code": "laboratory", 
                                "display": "Laboratory", 
                                "system": "http://hl7.org/fhir/observation-category"
                            }
                        ], 
                        "text": "Laboratory"
                    }
                ], 
                "code": {
                    "coding": [
                        {
                            "code": "10378-8", 
                            "display": "Polychromasia Bld Ql Smear", 
                            "system": "http://loinc.org"
                        }
                    ], 
                    "text": "Polychromasia Bld Ql Smear"
                }, 
                "effectiveDateTime": "2005-07-05", 
                "extension": [
                    {
                        "url": "http://fhir-registry.smarthealthit.org/StructureDefinition/labs#value-range", 
                        "valueString": [
                            "None", 
                            "Slight", 
                            "Moderate", 
                            "Many"
                        ]
                    }
                ], 
                "id": "ehealth-1734-lab", 
                "identifier": [
                    {
                        "system": "http://www.bmc.nl/zorgportal/identifiers/observations", 
                        "use": "official", 
                        "value": "ehealth-1734-lab"
                    }
                ], 
                "performer": [
                    {
                        "reference": "Practitioner/ehealth-Practitioner-71482713"
                    }
                ], 
                "resourceType": "Observation", 
                "status": "unknown", 
                "subject": {
                    "reference": "Patient/ehealth-1134281"
                }, 
                "text": {
                    "div": "<div xmlns=\"http://www.w3.org/1999/xhtml\">2005-07-05: Polychromasia Bld Ql Smear = Slight </div>", 
                    "status": "generated"
                }, 
                "valueString": "Slight"
            }
        }, 
        {
            "request": {
                "method": "PUT", 
                "url": "Observation/ehealth-1735-lab"
            }, 
            "resource": {
                "category": [
                    {
                        "coding": [
                            {
                                "code": "laboratory", 
                                "display": "Laboratory", 
                                "system": "http://hl7.org/fhir/observation-category"
                            }
                        ], 
                        "text": "Laboratory"
                    }
                ], 
                "code": {
                    "coding": [
                        {
                            "code": "774-0", 
                            "display": "Ovalocytes Bld Ql Smear", 
                            "system": "http://loinc.org"
                        }
                    ], 
                    "text": "Ovalocytes Bld Ql Smear"
                }, 
                "effectiveDateTime": "2005-07-05", 
                "extension": [
                    {
                        "url": "http://fhir-registry.smarthealthit.org/StructureDefinition/labs#value-range", 
                        "valueString": [
                            "None", 
                            "Few", 
                            "Many"
                        ]
                    }
                ], 
                "id": "ehealth-1735-lab", 
                "identifier": [
                    {
                        "system": "http://www.bmc.nl/zorgportal/identifiers/observations", 
                        "use": "official", 
                        "value": "ehealth-1735-lab"
                    }
                ], 
                "performer": [
                    {
                        "reference": "Practitioner/ehealth-Practitioner-71482713"
                    }
                ], 
                "resourceType": "Observation", 
                "status": "unknown", 
                "subject": {
                    "reference": "Patient/ehealth-1134281"
                }, 
                "text": {
                    "div": "<div xmlns=\"http://www.w3.org/1999/xhtml\">2005-07-05: Ovalocytes Bld Ql Smear = Few </div>", 
                    "status": "generated"
                }, 
                "valueString": "Few"
            }
        }, 
        {
            "request": {
                "method": "PUT", 
                "url": "Observation/ehealth-1736-lab"
            }, 
            "resource": {
                "category": [
                    {
                        "coding": [
                            {
                                "code": "laboratory", 
                                "display": "Laboratory", 
                                "system": "http://hl7.org/fhir/observation-category"
                            }
                        ], 
                        "text": "Laboratory"
                    }
                ], 
                "code": {
                    "coding": [
                        {
                            "code": "800-3", 
                            "display": "Schistocytes Bld Ql Smear", 
                            "system": "http://loinc.org"
                        }
                    ], 
                    "text": "Schistocytes Bld Ql Smear"
                }, 
                "effectiveDateTime": "2005-07-05", 
                "extension": [
                    {
                        "url": "http://fhir-registry.smarthealthit.org/StructureDefinition/labs#value-range", 
                        "valueString": [
                            "None", 
                            "Few", 
                            "Many"
                        ]
                    }
                ], 
                "id": "ehealth-1736-lab", 
                "identifier": [
                    {
                        "system": "http://www.bmc.nl/zorgportal/identifiers/observations", 
                        "use": "official", 
                        "value": "ehealth-1736-lab"
                    }
                ], 
                "performer": [
                    {
                        "reference": "Practitioner/ehealth-Practitioner-71482713"
                    }
                ], 
                "resourceType": "Observation", 
                "status": "unknown", 
                "subject": {
                    "reference": "Patient/ehealth-1134281"
                }, 
                "text": {
                    "div": "<div xmlns=\"http://www.w3.org/1999/xhtml\">2005-07-05: Schistocytes Bld Ql Smear = None </div>", 
                    "status": "generated"
                }, 
                "valueString": "None"
            }
        }, 
        {
            "request": {
                "method": "PUT", 
                "url": "Observation/ehealth-1737-lab"
            }, 
            "resource": {
                "category": [
                    {
                        "coding": [
                            {
                                "code": "laboratory", 
                                "display": "Laboratory", 
                                "system": "http://hl7.org/fhir/observation-category"
                            }
                        ], 
                        "text": "Laboratory"
                    }
                ], 
                "code": {
                    "coding": [
                        {
                            "code": "735-1", 
                            "display": "Variant Lymphs NFr Bld Manual", 
                            "system": "http://loinc.org"
                        }
                    ], 
                    "text": "Variant Lymphs NFr Bld Manual"
                }, 
                "effectiveDateTime": "2005-07-05", 
                "id": "ehealth-1737-lab", 
                "identifier": [
                    {
                        "system": "http://www.bmc.nl/zorgportal/identifiers/observations", 
                        "use": "official", 
                        "value": "ehealth-1737-lab"
                    }
                ], 
                "performer": [
                    {
                        "reference": "Practitioner/ehealth-Practitioner-71482713"
                    }
                ], 
                "referenceRange": [
                    {
                        "high": {
                            "code": "%", 
                            "system": "http://unitsofmeasure.org", 
                            "unit": "%", 
                            "value": 0.0
                        }, 
                        "low": {
                            "code": "%", 
                            "system": "http://unitsofmeasure.org", 
                            "unit": "%", 
                            "value": 0.0
                        }, 
                        "type": {
                            "coding": [
                                {
                                    "code": "normal", 
                                    "display": "Normal Range", 
                                    "system": "http://hl7.org/fhir/referencerange-meaning"
                                }
                            ], 
                            "text": "Normal Range"
                        }
                    }
                ], 
                "resourceType": "Observation", 
                "status": "unknown", 
                "subject": {
                    "reference": "Patient/ehealth-1134281"
                }, 
                "text": {
                    "div": "<div xmlns=\"http://www.w3.org/1999/xhtml\">2005-07-05: Variant Lymphs NFr Bld Manual = 3 %</div>", 
                    "status": "generated"
                }, 
                "valueQuantity": {
                    "code": "%", 
                    "system": "http://unitsofmeasure.org", 
                    "unit": "%", 
                    "value": 3.0
                }
            }
        }, 
        {
            "request": {
                "method": "PUT", 
                "url": "Observation/ehealth-1738-lab"
            }, 
            "resource": {
                "category": [
                    {
                        "coding": [
                            {
                                "code": "laboratory", 
                                "display": "Laboratory", 
                                "system": "http://hl7.org/fhir/observation-category"
                            }
                        ], 
                        "text": "Laboratory"
                    }
                ], 
                "code": {
                    "coding": [
                        {
                            "code": "1975-2", 
                            "display": "Bilirub SerPl-mCnc", 
                            "system": "http://loinc.org"
                        }
                    ], 
                    "text": "Bilirub SerPl-mCnc"
                }, 
                "effectiveDateTime": "2005-07-06", 
                "id": "ehealth-1738-lab", 
                "identifier": [
                    {
                        "system": "http://www.bmc.nl/zorgportal/identifiers/observations", 
                        "use": "official", 
                        "value": "ehealth-1738-lab"
                    }
                ], 
                "performer": [
                    {
                        "reference": "Practitioner/ehealth-Practitioner-71482713"
                    }
                ], 
                "referenceRange": [
                    {
                        "high": {
                            "code": "mg/dL", 
                            "system": "http://unitsofmeasure.org", 
                            "unit": "mg/dL", 
                            "value": 7.0
                        }, 
                        "low": {
                            "code": "mg/dL", 
                            "system": "http://unitsofmeasure.org", 
                            "unit": "mg/dL", 
                            "value": 2.0
                        }, 
                        "type": {
                            "coding": [
                                {
                                    "code": "normal", 
                                    "display": "Normal Range", 
                                    "system": "http://hl7.org/fhir/referencerange-meaning"
                                }
                            ], 
                            "text": "Normal Range"
                        }
                    }
                ], 
                "resourceType": "Observation", 
                "status": "unknown", 
                "subject": {
                    "reference": "Patient/ehealth-1134281"
                }, 
                "text": {
                    "div": "<div xmlns=\"http://www.w3.org/1999/xhtml\">2005-07-06: Bilirub SerPl-mCnc = 10.2 mg/dL</div>", 
                    "status": "generated"
                }, 
                "valueQuantity": {
                    "code": "mg/dL", 
                    "system": "http://unitsofmeasure.org", 
                    "unit": "mg/dL", 
                    "value": 10.2
                }
            }
        }, 
        {
            "request": {
                "method": "PUT", 
                "url": "Observation/ehealth-1739-lab"
            }, 
            "resource": {
                "category": [
                    {
                        "coding": [
                            {
                                "code": "laboratory", 
                                "display": "Laboratory", 
                                "system": "http://hl7.org/fhir/observation-category"
                            }
                        ], 
                        "text": "Laboratory"
                    }
                ], 
                "code": {
                    "coding": [
                        {
                            "code": "1975-2", 
                            "display": "Bilirub SerPl-mCnc", 
                            "system": "http://loinc.org"
                        }
                    ], 
                    "text": "Bilirub SerPl-mCnc"
                }, 
                "effectiveDateTime": "2005-07-06", 
                "id": "ehealth-1739-lab", 
                "identifier": [
                    {
                        "system": "http://www.bmc.nl/zorgportal/identifiers/observations", 
                        "use": "official", 
                        "value": "ehealth-1739-lab"
                    }
                ], 
                "performer": [
                    {
                        "reference": "Practitioner/ehealth-Practitioner-71482713"
                    }
                ], 
                "referenceRange": [
                    {
                        "high": {
                            "code": "mg/dL", 
                            "system": "http://unitsofmeasure.org", 
                            "unit": "mg/dL", 
                            "value": 7.0
                        }, 
                        "low": {
                            "code": "mg/dL", 
                            "system": "http://unitsofmeasure.org", 
                            "unit": "mg/dL", 
                            "value": 2.0
                        }, 
                        "type": {
                            "coding": [
                                {
                                    "code": "normal", 
                                    "display": "Normal Range", 
                                    "system": "http://hl7.org/fhir/referencerange-meaning"
                                }
                            ], 
                            "text": "Normal Range"
                        }
                    }
                ], 
                "resourceType": "Observation", 
                "status": "unknown", 
                "subject": {
                    "reference": "Patient/ehealth-1134281"
                }, 
                "text": {
                    "div": "<div xmlns=\"http://www.w3.org/1999/xhtml\">2005-07-06: Bilirub SerPl-mCnc = 10.1 mg/dL</div>", 
                    "status": "generated"
                }, 
                "valueQuantity": {
                    "code": "mg/dL", 
                    "system": "http://unitsofmeasure.org", 
                    "unit": "mg/dL", 
                    "value": 10.1
                }
            }
        }, 
        {
            "request": {
                "method": "PUT", 
                "url": "Observation/ehealth-1740-lab"
            }, 
            "resource": {
                "category": [
                    {
                        "coding": [
                            {
                                "code": "laboratory", 
                                "display": "Laboratory", 
                                "system": "http://hl7.org/fhir/observation-category"
                            }
                        ], 
                        "text": "Laboratory"
                    }
                ], 
                "code": {
                    "coding": [
                        {
                            "code": "2339-0", 
                            "display": "Glucose Bld-mCnc", 
                            "system": "http://loinc.org"
                        }
                    ], 
                    "text": "Glucose Bld-mCnc"
                }, 
                "effectiveDateTime": "2005-07-06", 
                "id": "ehealth-1740-lab", 
                "identifier": [
                    {
                        "system": "http://www.bmc.nl/zorgportal/identifiers/observations", 
                        "use": "official", 
                        "value": "ehealth-1740-lab"
                    }
                ], 
                "performer": [
                    {
                        "reference": "Practitioner/ehealth-Practitioner-71482713"
                    }
                ], 
                "referenceRange": [
                    {
                        "high": {
                            "code": "mg/dL", 
                            "system": "http://unitsofmeasure.org", 
                            "unit": "mg/dL", 
                            "value": 109.0
                        }, 
                        "low": {
                            "code": "mg/dL", 
                            "system": "http://unitsofmeasure.org", 
                            "unit": "mg/dL", 
                            "value": 40.0
                        }, 
                        "type": {
                            "coding": [
                                {
                                    "code": "normal", 
                                    "display": "Normal Range", 
                                    "system": "http://hl7.org/fhir/referencerange-meaning"
                                }
                            ], 
                            "text": "Normal Range"
                        }
                    }
                ], 
                "resourceType": "Observation", 
                "status": "unknown", 
                "subject": {
                    "reference": "Patient/ehealth-1134281"
                }, 
                "text": {
                    "div": "<div xmlns=\"http://www.w3.org/1999/xhtml\">2005-07-06: Glucose Bld-mCnc = 60 mg/dL</div>", 
                    "status": "generated"
                }, 
                "valueQuantity": {
                    "code": "mg/dL", 
                    "system": "http://unitsofmeasure.org", 
                    "unit": "mg/dL", 
                    "value": 60.0
                }
            }
        }, 
        {
            "request": {
                "method": "PUT", 
                "url": "Observation/ehealth-1741-lab"
            }, 
            "resource": {
                "category": [
                    {
                        "coding": [
                            {
                                "code": "laboratory", 
                                "display": "Laboratory", 
                                "system": "http://hl7.org/fhir/observation-category"
                            }
                        ], 
                        "text": "Laboratory"
                    }
                ], 
                "code": {
                    "coding": [
                        {
                            "code": "2339-0", 
                            "display": "Glucose Bld-mCnc", 
                            "system": "http://loinc.org"
                        }
                    ], 
                    "text": "Glucose Bld-mCnc"
                }, 
                "effectiveDateTime": "2005-07-06", 
                "id": "ehealth-1741-lab", 
                "identifier": [
                    {
                        "system": "http://www.bmc.nl/zorgportal/identifiers/observations", 
                        "use": "official", 
                        "value": "ehealth-1741-lab"
                    }
                ], 
                "performer": [
                    {
                        "reference": "Practitioner/ehealth-Practitioner-71482713"
                    }
                ], 
                "referenceRange": [
                    {
                        "high": {
                            "code": "mg/dL", 
                            "system": "http://unitsofmeasure.org", 
                            "unit": "mg/dL", 
                            "value": 109.0
                        }, 
                        "low": {
                            "code": "mg/dL", 
                            "system": "http://unitsofmeasure.org", 
                            "unit": "mg/dL", 
                            "value": 40.0
                        }, 
                        "type": {
                            "coding": [
                                {
                                    "code": "normal", 
                                    "display": "Normal Range", 
                                    "system": "http://hl7.org/fhir/referencerange-meaning"
                                }
                            ], 
                            "text": "Normal Range"
                        }
                    }
                ], 
                "resourceType": "Observation", 
                "status": "unknown", 
                "subject": {
                    "reference": "Patient/ehealth-1134281"
                }, 
                "text": {
                    "div": "<div xmlns=\"http://www.w3.org/1999/xhtml\">2005-07-06: Glucose Bld-mCnc = 93 mg/dL</div>", 
                    "status": "generated"
                }, 
                "valueQuantity": {
                    "code": "mg/dL", 
                    "system": "http://unitsofmeasure.org", 
                    "unit": "mg/dL", 
                    "value": 93.0
                }
            }
        }, 
        {
            "request": {
                "method": "PUT", 
                "url": "Observation/ehealth-1742-lab"
            }, 
            "resource": {
                "category": [
                    {
                        "coding": [
                            {
                                "code": "laboratory", 
                                "display": "Laboratory", 
                                "system": "http://hl7.org/fhir/observation-category"
                            }
                        ], 
                        "text": "Laboratory"
                    }
                ], 
                "code": {
                    "coding": [
                        {
                            "code": "38478-4", 
                            "display": "Biotinidase DBS Ql", 
                            "system": "http://loinc.org"
                        }
                    ], 
                    "text": "Biotinidase DBS Ql"
                }, 
                "effectiveDateTime": "2005-07-07", 
                "extension": [
                    {
                        "url": "http://fhir-registry.smarthealthit.org/StructureDefinition/labs#value-range", 
                        "valueString": [
                            "Normal", 
                            "Abnormal"
                        ]
                    }
                ], 
                "id": "ehealth-1742-lab", 
                "identifier": [
                    {
                        "system": "http://www.bmc.nl/zorgportal/identifiers/observations", 
                        "use": "official", 
                        "value": "ehealth-1742-lab"
                    }
                ], 
                "performer": [
                    {
                        "reference": "Practitioner/ehealth-Practitioner-71482713"
                    }
                ], 
                "resourceType": "Observation", 
                "status": "unknown", 
                "subject": {
                    "reference": "Patient/ehealth-1134281"
                }, 
                "text": {
                    "div": "<div xmlns=\"http://www.w3.org/1999/xhtml\">2005-07-07: Biotinidase DBS Ql = Normal </div>", 
                    "status": "generated"
                }, 
                "valueString": "Normal"
            }
        }, 
        {
            "request": {
                "method": "PUT", 
                "url": "Observation/ehealth-1743-lab"
            }, 
            "resource": {
                "category": [
                    {
                        "coding": [
                            {
                                "code": "laboratory", 
                                "display": "Laboratory", 
                                "system": "http://hl7.org/fhir/observation-category"
                            }
                        ], 
                        "text": "Laboratory"
                    }
                ], 
                "code": {
                    "coding": [
                        {
                            "code": "29571-7", 
                            "display": "Phe DBS Ql", 
                            "system": "http://loinc.org"
                        }
                    ], 
                    "text": "Phe DBS Ql"
                }, 
                "effectiveDateTime": "2005-07-07", 
                "extension": [
                    {
                        "url": "http://fhir-registry.smarthealthit.org/StructureDefinition/labs#value-range", 
                        "valueString": [
                            "Normal", 
                            "Abnormal"
                        ]
                    }
                ], 
                "id": "ehealth-1743-lab", 
                "identifier": [
                    {
                        "system": "http://www.bmc.nl/zorgportal/identifiers/observations", 
                        "use": "official", 
                        "value": "ehealth-1743-lab"
                    }
                ], 
                "performer": [
                    {
                        "reference": "Practitioner/ehealth-Practitioner-71482713"
                    }
                ], 
                "resourceType": "Observation", 
                "status": "unknown", 
                "subject": {
                    "reference": "Patient/ehealth-1134281"
                }, 
                "text": {
                    "div": "<div xmlns=\"http://www.w3.org/1999/xhtml\">2005-07-07: Phe DBS Ql = Normal </div>", 
                    "status": "generated"
                }, 
                "valueString": "Normal"
            }
        }, 
        {
            "request": {
                "method": "PUT", 
                "url": "Observation/ehealth-1744-lab"
            }, 
            "resource": {
                "category": [
                    {
                        "coding": [
                            {
                                "code": "laboratory", 
                                "display": "Laboratory", 
                                "system": "http://hl7.org/fhir/observation-category"
                            }
                        ], 
                        "text": "Laboratory"
                    }
                ], 
                "code": {
                    "coding": [
                        {
                            "code": "1975-2", 
                            "display": "Bilirub SerPl-mCnc", 
                            "system": "http://loinc.org"
                        }
                    ], 
                    "text": "Bilirub SerPl-mCnc"
                }, 
                "effectiveDateTime": "2005-07-07", 
                "id": "ehealth-1744-lab", 
                "identifier": [
                    {
                        "system": "http://www.bmc.nl/zorgportal/identifiers/observations", 
                        "use": "official", 
                        "value": "ehealth-1744-lab"
                    }
                ], 
                "performer": [
                    {
                        "reference": "Practitioner/ehealth-Practitioner-71482713"
                    }
                ], 
                "referenceRange": [
                    {
                        "high": {
                            "code": "mg/dL", 
                            "system": "http://unitsofmeasure.org", 
                            "unit": "mg/dL", 
                            "value": 7.0
                        }, 
                        "low": {
                            "code": "mg/dL", 
                            "system": "http://unitsofmeasure.org", 
                            "unit": "mg/dL", 
                            "value": 2.0
                        }, 
                        "type": {
                            "coding": [
                                {
                                    "code": "normal", 
                                    "display": "Normal Range", 
                                    "system": "http://hl7.org/fhir/referencerange-meaning"
                                }
                            ], 
                            "text": "Normal Range"
                        }
                    }
                ], 
                "resourceType": "Observation", 
                "status": "unknown", 
                "subject": {
                    "reference": "Patient/ehealth-1134281"
                }, 
                "text": {
                    "div": "<div xmlns=\"http://www.w3.org/1999/xhtml\">2005-07-07: Bilirub SerPl-mCnc = 8.6 mg/dL</div>", 
                    "status": "generated"
                }, 
                "valueQuantity": {
                    "code": "mg/dL", 
                    "system": "http://unitsofmeasure.org", 
                    "unit": "mg/dL", 
                    "value": 8.6
                }
            }
        }, 
        {
            "request": {
                "method": "PUT", 
                "url": "Observation/ehealth-1745-lab"
            }, 
            "resource": {
                "category": [
                    {
                        "coding": [
                            {
                                "code": "laboratory", 
                                "display": "Laboratory", 
                                "system": "http://hl7.org/fhir/observation-category"
                            }
                        ], 
                        "text": "Laboratory"
                    }
                ], 
                "code": {
                    "coding": [
                        {
                            "code": "1975-2", 
                            "display": "Bilirub SerPl-mCnc", 
                            "system": "http://loinc.org"
                        }
                    ], 
                    "text": "Bilirub SerPl-mCnc"
                }, 
                "effectiveDateTime": "2005-07-07", 
                "id": "ehealth-1745-lab", 
                "identifier": [
                    {
                        "system": "http://www.bmc.nl/zorgportal/identifiers/observations", 
                        "use": "official", 
                        "value": "ehealth-1745-lab"
                    }
                ], 
                "performer": [
                    {
                        "reference": "Practitioner/ehealth-Practitioner-71482713"
                    }
                ], 
                "referenceRange": [
                    {
                        "high": {
                            "code": "mg/dL", 
                            "system": "http://unitsofmeasure.org", 
                            "unit": "mg/dL", 
                            "value": 7.0
                        }, 
                        "low": {
                            "code": "mg/dL", 
                            "system": "http://unitsofmeasure.org", 
                            "unit": "mg/dL", 
                            "value": 2.0
                        }, 
                        "type": {
                            "coding": [
                                {
                                    "code": "normal", 
                                    "display": "Normal Range", 
                                    "system": "http://hl7.org/fhir/referencerange-meaning"
                                }
                            ], 
                            "text": "Normal Range"
                        }
                    }
                ], 
                "resourceType": "Observation", 
                "status": "unknown", 
                "subject": {
                    "reference": "Patient/ehealth-1134281"
                }, 
                "text": {
                    "div": "<div xmlns=\"http://www.w3.org/1999/xhtml\">2005-07-07: Bilirub SerPl-mCnc = 8.3 mg/dL</div>", 
                    "status": "generated"
                }, 
                "valueQuantity": {
                    "code": "mg/dL", 
                    "system": "http://unitsofmeasure.org", 
                    "unit": "mg/dL", 
                    "value": 8.3
                }
            }
        }, 
        {
            "request": {
                "method": "PUT", 
                "url": "Observation/ehealth-1746-lab"
            }, 
            "resource": {
                "category": [
                    {
                        "coding": [
                            {
                                "code": "laboratory", 
                                "display": "Laboratory", 
                                "system": "http://hl7.org/fhir/observation-category"
                            }
                        ], 
                        "text": "Laboratory"
                    }
                ], 
                "code": {
                    "coding": [
                        {
                            "code": "1975-2", 
                            "display": "Bilirub SerPl-mCnc", 
                            "system": "http://loinc.org"
                        }
                    ], 
                    "text": "Bilirub SerPl-mCnc"
                }, 
                "effectiveDateTime": "2005-07-08", 
                "id": "ehealth-1746-lab", 
                "identifier": [
                    {
                        "system": "http://www.bmc.nl/zorgportal/identifiers/observations", 
                        "use": "official", 
                        "value": "ehealth-1746-lab"
                    }
                ], 
                "performer": [
                    {
                        "reference": "Practitioner/ehealth-Practitioner-71482713"
                    }
                ], 
                "referenceRange": [
                    {
                        "high": {
                            "code": "mg/dL", 
                            "system": "http://unitsofmeasure.org", 
                            "unit": "mg/dL", 
                            "value": 6.0
                        }, 
                        "low": {
                            "code": "mg/dL", 
                            "system": "http://unitsofmeasure.org", 
                            "unit": "mg/dL", 
                            "value": 2.0
                        }, 
                        "type": {
                            "coding": [
                                {
                                    "code": "normal", 
                                    "display": "Normal Range", 
                                    "system": "http://hl7.org/fhir/referencerange-meaning"
                                }
                            ], 
                            "text": "Normal Range"
                        }
                    }
                ], 
                "resourceType": "Observation", 
                "status": "unknown", 
                "subject": {
                    "reference": "Patient/ehealth-1134281"
                }, 
                "text": {
                    "div": "<div xmlns=\"http://www.w3.org/1999/xhtml\">2005-07-08: Bilirub SerPl-mCnc = 11.3 mg/dL</div>", 
                    "status": "generated"
                }, 
                "valueQuantity": {
                    "code": "mg/dL", 
                    "system": "http://unitsofmeasure.org", 
                    "unit": "mg/dL", 
                    "value": 11.3
                }
            }
        }, 
        {
            "request": {
                "method": "PUT", 
                "url": "Observation/ehealth-1747-lab"
            }, 
            "resource": {
                "category": [
                    {
                        "coding": [
                            {
                                "code": "laboratory", 
                                "display": "Laboratory", 
                                "system": "http://hl7.org/fhir/observation-category"
                            }
                        ], 
                        "text": "Laboratory"
                    }
                ], 
                "code": {
                    "coding": [
                        {
                            "code": "1975-2", 
                            "display": "Bilirub SerPl-mCnc", 
                            "system": "http://loinc.org"
                        }
                    ], 
                    "text": "Bilirub SerPl-mCnc"
                }, 
                "effectiveDateTime": "2005-07-08", 
                "id": "ehealth-1747-lab", 
                "identifier": [
                    {
                        "system": "http://www.bmc.nl/zorgportal/identifiers/observations", 
                        "use": "official", 
                        "value": "ehealth-1747-lab"
                    }
                ], 
                "performer": [
                    {
                        "reference": "Practitioner/ehealth-Practitioner-71482713"
                    }
                ], 
                "referenceRange": [
                    {
                        "high": {
                            "code": "mg/dL", 
                            "system": "http://unitsofmeasure.org", 
                            "unit": "mg/dL", 
                            "value": 6.0
                        }, 
                        "low": {
                            "code": "mg/dL", 
                            "system": "http://unitsofmeasure.org", 
                            "unit": "mg/dL", 
                            "value": 2.0
                        }, 
                        "type": {
                            "coding": [
                                {
                                    "code": "normal", 
                                    "display": "Normal Range", 
                                    "system": "http://hl7.org/fhir/referencerange-meaning"
                                }
                            ], 
                            "text": "Normal Range"
                        }
                    }
                ], 
                "resourceType": "Observation", 
                "status": "unknown", 
                "subject": {
                    "reference": "Patient/ehealth-1134281"
                }, 
                "text": {
                    "div": "<div xmlns=\"http://www.w3.org/1999/xhtml\">2005-07-08: Bilirub SerPl-mCnc = 11 mg/dL</div>", 
                    "status": "generated"
                }, 
                "valueQuantity": {
                    "code": "mg/dL", 
                    "system": "http://unitsofmeasure.org", 
                    "unit": "mg/dL", 
                    "value": 11.0
                }
            }
        }, 
        {
            "request": {
                "method": "PUT", 
                "url": "Observation/ehealth-1748-lab"
            }, 
            "resource": {
                "category": [
                    {
                        "coding": [
                            {
                                "code": "laboratory", 
                                "display": "Laboratory", 
                                "system": "http://hl7.org/fhir/observation-category"
                            }
                        ], 
                        "text": "Laboratory"
                    }
                ], 
                "code": {
                    "coding": [
                        {
                            "code": "1975-2", 
                            "display": "Bilirub SerPl-mCnc", 
                            "system": "http://loinc.org"
                        }
                    ], 
                    "text": "Bilirub SerPl-mCnc"
                }, 
                "effectiveDateTime": "2005-07-10", 
                "id": "ehealth-1748-lab", 
                "identifier": [
                    {
                        "system": "http://www.bmc.nl/zorgportal/identifiers/observations", 
                        "use": "official", 
                        "value": "ehealth-1748-lab"
                    }
                ], 
                "performer": [
                    {
                        "reference": "Practitioner/ehealth-Practitioner-71482713"
                    }
                ], 
                "referenceRange": [
                    {
                        "high": {
                            "code": "mg/dL", 
                            "system": "http://unitsofmeasure.org", 
                            "unit": "mg/dL", 
                            "value": 6.0
                        }, 
                        "low": {
                            "code": "mg/dL", 
                            "system": "http://unitsofmeasure.org", 
                            "unit": "mg/dL", 
                            "value": 2.0
                        }, 
                        "type": {
                            "coding": [
                                {
                                    "code": "normal", 
                                    "display": "Normal Range", 
                                    "system": "http://hl7.org/fhir/referencerange-meaning"
                                }
                            ], 
                            "text": "Normal Range"
                        }
                    }
                ], 
                "resourceType": "Observation", 
                "status": "unknown", 
                "subject": {
                    "reference": "Patient/ehealth-1134281"
                }, 
                "text": {
                    "div": "<div xmlns=\"http://www.w3.org/1999/xhtml\">2005-07-10: Bilirub SerPl-mCnc = 10.5 mg/dL</div>", 
                    "status": "generated"
                }, 
                "valueQuantity": {
                    "code": "mg/dL", 
                    "system": "http://unitsofmeasure.org", 
                    "unit": "mg/dL", 
                    "value": 10.5
                }
            }
        }, 
        {
            "request": {
                "method": "PUT", 
                "url": "MedicationRequest/ehealth-MedicationRequest-114"
            }, 
            "resource": {
                "dispenseRequest": {
                    "expectedSupplyDuration": {
                        "code": "d", 
                        "system": "http://unitsofmeasure.org", 
                        "unit": "days", 
                        "value": 10
                    }, 
                    "numberOfRepeatsAllowed": 1, 
                    "quantity": {
                        "code": "mL", 
                        "system": "http://unitsofmeasure.org", 
                        "unit": "mL", 
                        "value": 1.0
                    }
                }, 
                "dosageInstruction": [
                    {
                        "doseQuantity": {
                            "code": "mL", 
                            "system": "http://unitsofmeasure.org", 
                            "unit": "mL", 
                            "value": 10.0
                        }, 
                        "text": "10 mL bid x 10 days", 
                        "timing": {
                            "repeat": {
                                "boundsPeriod": {
                                    "start": "2005-11-28"
                                }, 
                                "frequency": 2, 
                                "period": 1, 
                                "periodUnit": "d"
                            }
                        }
                    }
                ], 
                "id": "ehealth-MedicationRequest-114", 
                "intent": "order", 
                "medicationCodeableConcept": {
                    "coding": [
                        {
                            "code": "239191", 
                            "display": "Amoxicillin 50 MG/ML Oral Suspension", 
                            "system": "http://www.nlm.nih.gov/research/umls/rxnorm"
                        }
                    ], 
                    "text": "Amoxicillin 50 MG/ML Oral Suspension"
                }, 
                "resourceType": "MedicationRequest", 
                "status": "active", 
                "subject": {
                    "reference": "Patient/ehealth-1134281"
                }, 
                "text": {
                    "div": "<div xmlns=\"http://www.w3.org/1999/xhtml\">Amoxicillin 50 MG/ML Oral Suspension (rxnorm: 239191)</div>", 
                    "status": "generated"
                }
            }
        }, 
        {
            "request": {
                "method": "PUT", 
                "url": "MedicationRequest/ehealth-MedicationRequest-115"
            }, 
            "resource": {
                "dispenseRequest": {
                    "expectedSupplyDuration": {
                        "code": "d", 
                        "system": "http://unitsofmeasure.org", 
                        "unit": "days", 
                        "value": 0
                    }, 
                    "numberOfRepeatsAllowed": 1
                }, 
                "id": "ehealth-MedicationRequest-115", 
                "intent": "order", 
                "medicationCodeableConcept": {
                    "coding": [
                        {
                            "code": "352027", 
                            "display": "carbinoxamine 1 MG/ML / Dextromethorphan 4 MG/ML / Pseudoephedrine 15 MG/ML Oral Solution [Carbofed DM Drops]", 
                            "system": "http://www.nlm.nih.gov/research/umls/rxnorm"
                        }
                    ], 
                    "text": "carbinoxamine 1 MG/ML / Dextromethorphan 4 MG/ML / Pseudoephedrine 15 MG/ML Oral Solution [Carbofed DM Drops]"
                }, 
                "resourceType": "MedicationRequest", 
                "status": "active", 
                "subject": {
                    "reference": "Patient/ehealth-1134281"
                }, 
                "text": {
                    "div": "<div xmlns=\"http://www.w3.org/1999/xhtml\">carbinoxamine 1 MG/ML / Dextromethorphan 4 MG/ML / Pseudoephedrine 15 MG/ML Oral Solution [Carbofed DM Drops] (rxnorm: 352027)</div>", 
                    "status": "generated"
                }
            }
        }, 
        {
            "request": {
                "method": "PUT", 
                "url": "MedicationRequest/ehealth-MedicationRequest-116"
            }, 
            "resource": {
                "dispenseRequest": {
                    "expectedSupplyDuration": {
                        "code": "d", 
                        "system": "http://unitsofmeasure.org", 
                        "unit": "days", 
                        "value": 30
                    }, 
                    "numberOfRepeatsAllowed": 1, 
                    "quantity": {
                        "code": "mL", 
                        "system": "http://unitsofmeasure.org", 
                        "unit": "mL", 
                        "value": 1.0
                    }
                }, 
                "dosageInstruction": [
                    {
                        "doseQuantity": {
                            "code": "mL", 
                            "system": "http://unitsofmeasure.org", 
                            "unit": "mL", 
                            "value": 4.0
                        }, 
                        "text": "4 mL qid", 
                        "timing": {
                            "repeat": {
                                "boundsPeriod": {
                                    "start": "2006-01-08"
                                }, 
                                "frequency": 4, 
                                "period": 1, 
                                "periodUnit": "d"
                            }
                        }
                    }
                ], 
                "id": "ehealth-MedicationRequest-116", 
                "intent": "order", 
                "medicationCodeableConcept": {
                    "coding": [
                        {
                            "code": "104884", 
                            "display": "Metoclopramide 1 MG/ML Oral Solution", 
                            "system": "http://www.nlm.nih.gov/research/umls/rxnorm"
                        }
                    ], 
                    "text": "Metoclopramide 1 MG/ML Oral Solution"
                }, 
                "resourceType": "MedicationRequest", 
                "status": "active", 
                "subject": {
                    "reference": "Patient/ehealth-1134281"
                }, 
                "text": {
                    "div": "<div xmlns=\"http://www.w3.org/1999/xhtml\">Metoclopramide 1 MG/ML Oral Solution (rxnorm: 104884)</div>", 
                    "status": "generated"
                }
            }
        }, 
        {
            "request": {
                "method": "PUT", 
                "url": "MedicationRequest/ehealth-MedicationRequest-117"
            }, 
            "resource": {
                "dispenseRequest": {
                    "expectedSupplyDuration": {
                        "code": "d", 
                        "system": "http://unitsofmeasure.org", 
                        "unit": "days", 
                        "value": 30
                    }, 
                    "numberOfRepeatsAllowed": 1, 
                    "quantity": {
                        "code": "mL", 
                        "system": "http://unitsofmeasure.org", 
                        "unit": "mL", 
                        "value": 1.0
                    }
                }, 
                "dosageInstruction": [
                    {
                        "doseQuantity": {
                            "code": "mL", 
                            "system": "http://unitsofmeasure.org", 
                            "unit": "mL", 
                            "value": 6.0
                        }, 
                        "text": "6 mL bid", 
                        "timing": {
                            "repeat": {
                                "boundsPeriod": {
                                    "start": "2006-01-08"
                                }, 
                                "frequency": 2, 
                                "period": 1, 
                                "periodUnit": "d"
                            }
                        }
                    }
                ], 
                "id": "ehealth-MedicationRequest-117", 
                "intent": "order", 
                "medicationCodeableConcept": {
                    "coding": [
                        {
                            "code": "755272", 
                            "display": "Ranitidine 15 MG/ML Oral Solution [Zantac]", 
                            "system": "http://www.nlm.nih.gov/research/umls/rxnorm"
                        }
                    ], 
                    "text": "Ranitidine 15 MG/ML Oral Solution [Zantac]"
                }, 
                "resourceType": "MedicationRequest", 
                "status": "active", 
                "subject": {
                    "reference": "Patient/ehealth-1134281"
                }, 
                "text": {
                    "div": "<div xmlns=\"http://www.w3.org/1999/xhtml\">Ranitidine 15 MG/ML Oral Solution [Zantac] (rxnorm: 755272)</div>", 
                    "status": "generated"
                }
            }
        }, 
        {
            "request": {
                "method": "PUT", 
                "url": "MedicationRequest/ehealth-MedicationRequest-118"
            }, 
            "resource": {
                "dispenseRequest": {
                    "expectedSupplyDuration": {
                        "code": "d", 
                        "system": "http://unitsofmeasure.org", 
                        "unit": "days", 
                        "value": 10
                    }, 
                    "numberOfRepeatsAllowed": 1, 
                    "quantity": {
                        "code": "mL", 
                        "system": "http://unitsofmeasure.org", 
                        "unit": "mL", 
                        "value": 1.0
                    }
                }, 
                "dosageInstruction": [
                    {
                        "doseQuantity": {
                            "code": "mL", 
                            "system": "http://unitsofmeasure.org", 
                            "unit": "mL", 
                            "value": 7.0
                        }, 
                        "text": "7 mL bid x 10 days", 
                        "timing": {
                            "repeat": {
                                "boundsPeriod": {
                                    "start": "2006-08-31"
                                }, 
                                "frequency": 2, 
                                "period": 1, 
                                "periodUnit": "d"
                            }
                        }
                    }
                ], 
                "id": "ehealth-MedicationRequest-118", 
                "intent": "order", 
                "medicationCodeableConcept": {
                    "coding": [
                        {
                            "code": "308189", 
                            "display": "Amoxicillin 80 MG/ML Oral Suspension", 
                            "system": "http://www.nlm.nih.gov/research/umls/rxnorm"
                        }
                    ], 
                    "text": "Amoxicillin 80 MG/ML Oral Suspension"
                }, 
                "resourceType": "MedicationRequest", 
                "status": "active", 
                "subject": {
                    "reference": "Patient/ehealth-1134281"
                }, 
                "text": {
                    "div": "<div xmlns=\"http://www.w3.org/1999/xhtml\">Amoxicillin 80 MG/ML Oral Suspension (rxnorm: 308189)</div>", 
                    "status": "generated"
                }
            }
        }, 
        {
            "request": {
                "method": "PUT", 
                "url": "MedicationRequest/ehealth-MedicationRequest-119"
            }, 
            "resource": {
                "dispenseRequest": {
                    "expectedSupplyDuration": {
                        "code": "d", 
                        "system": "http://unitsofmeasure.org", 
                        "unit": "days", 
                        "value": 30
                    }, 
                    "numberOfRepeatsAllowed": 1
                }, 
                "dosageInstruction": [
                    {
                        "asNeededBoolean": true, 
                        "text": "apply nasally prn"
                    }
                ], 
                "id": "ehealth-MedicationRequest-119", 
                "intent": "order", 
                "medicationCodeableConcept": {
                    "coding": [
                        {
                            "code": "106346", 
                            "display": "Mupirocin 0.02 MG/MG Topical Ointment", 
                            "system": "http://www.nlm.nih.gov/research/umls/rxnorm"
                        }
                    ], 
                    "text": "Mupirocin 0.02 MG/MG Topical Ointment"
                }, 
                "resourceType": "MedicationRequest", 
                "status": "active", 
                "subject": {
                    "reference": "Patient/ehealth-1134281"
                }, 
                "text": {
                    "div": "<div xmlns=\"http://www.w3.org/1999/xhtml\">Mupirocin 0.02 MG/MG Topical Ointment (rxnorm: 106346)</div>", 
                    "status": "generated"
                }
            }
        }, 
        {
            "request": {
                "method": "PUT", 
                "url": "MedicationDispense/ehealth-MedicationDispense-373"
            }, 
            "resource": {
                "authorizingPrescription": [
                    {
                        "reference": "MedicationRequest/ehealth-MedicationRequest-119"
                    }
                ], 
                "daysSupply": {
                    "code": "d", 
                    "system": "http://unitsofmeasure.org", 
                    "unit": "days", 
                    "value": 10
                }, 
                "id": "ehealth-MedicationDispense-373", 
                "medicationCodeableConcept": {
                    "coding": [
                        {
                            "code": "106346", 
                            "display": "Mupirocin 0.02 MG/MG Topical Ointment", 
                            "system": "http://www.nlm.nih.gov/research/umls/rxnorm"
                        }
                    ], 
                    "text": "Mupirocin 0.02 MG/MG Topical Ointment"
                }, 
                "quantity": {
                    "code": "{tablets}", 
                    "system": "http://unitsofmeasure.org", 
                    "unit": "tablets", 
                    "value": 22.0
                }, 
                "resourceType": "MedicationDispense", 
                "status": "completed", 
                "subject": {
                    "reference": "Patient/ehealth-1134281"
                }, 
                "text": {
                    "div": "<div xmlns=\"http://www.w3.org/1999/xhtml\">Dispensed 22 tablets = 10 day supply of Mupirocin 0.02 MG/MG Topical Ointment</div>", 
                    "status": "generated"
                }, 
                "whenHandedOver": "2009-04-06"
            }
        }, 
        {
            "request": {
                "method": "PUT", 
                "url": "MedicationRequest/ehealth-MedicationRequest-120"
            }, 
            "resource": {
                "dispenseRequest": {
                    "expectedSupplyDuration": {
                        "code": "d", 
                        "system": "http://unitsofmeasure.org", 
                        "unit": "days", 
                        "value": 10
                    }, 
                    "numberOfRepeatsAllowed": 1, 
                    "quantity": {
                        "code": "mL", 
                        "system": "http://unitsofmeasure.org", 
                        "unit": "mL", 
                        "value": 1.0
                    }
                }, 
                "dosageInstruction": [
                    {
                        "doseQuantity": {
                            "code": "mL", 
                            "system": "http://unitsofmeasure.org", 
                            "unit": "mL", 
                            "value": 7.0
                        }, 
                        "text": "7 mL bid x 10 days", 
                        "timing": {
                            "repeat": {
                                "boundsPeriod": {
                                    "start": "2009-06-17"
                                }, 
                                "frequency": 2, 
                                "period": 1, 
                                "periodUnit": "d"
                            }
                        }
                    }
                ], 
                "id": "ehealth-MedicationRequest-120", 
                "intent": "order", 
                "medicationCodeableConcept": {
                    "coding": [
                        {
                            "code": "617423", 
                            "display": "Amoxicillin 40 MG/ML / Clavulanate 5.7 MG/ML Oral Suspension", 
                            "system": "http://www.nlm.nih.gov/research/umls/rxnorm"
                        }
                    ], 
                    "text": "Amoxicillin 40 MG/ML / Clavulanate 5.7 MG/ML Oral Suspension"
                }, 
                "resourceType": "MedicationRequest", 
                "status": "active", 
                "subject": {
                    "reference": "Patient/ehealth-1134281"
                }, 
                "text": {
                    "div": "<div xmlns=\"http://www.w3.org/1999/xhtml\">Amoxicillin 40 MG/ML / Clavulanate 5.7 MG/ML Oral Suspension (rxnorm: 617423)</div>", 
                    "status": "generated"
                }
            }
        }, 
        {
            "request": {
                "method": "PUT", 
                "url": "MedicationDispense/ehealth-MedicationDispense-379"
            }, 
            "resource": {
                "authorizingPrescription": [
                    {
                        "reference": "MedicationRequest/ehealth-MedicationRequest-120"
                    }
                ], 
                "daysSupply": {
                    "code": "d", 
                    "system": "http://unitsofmeasure.org", 
                    "unit": "days", 
                    "value": 10
                }, 
                "id": "ehealth-MedicationDispense-379", 
                "medicationCodeableConcept": {
                    "coding": [
                        {
                            "code": "617423", 
                            "display": "Amoxicillin 40 MG/ML / Clavulanate 5.7 MG/ML Oral Suspension", 
                            "system": "http://www.nlm.nih.gov/research/umls/rxnorm"
                        }
                    ], 
                    "text": "Amoxicillin 40 MG/ML / Clavulanate 5.7 MG/ML Oral Suspension"
                }, 
                "quantity": {
                    "code": "{tablets}", 
                    "system": "http://unitsofmeasure.org", 
                    "unit": "tablets", 
                    "value": 100.0
                }, 
                "resourceType": "MedicationDispense", 
                "status": "completed", 
                "subject": {
                    "reference": "Patient/ehealth-1134281"
                }, 
                "text": {
                    "div": "<div xmlns=\"http://www.w3.org/1999/xhtml\">Dispensed 100 tablets = 10 day supply of Amoxicillin 40 MG/ML / Clavulanate 5.7 MG/ML Oral Suspension</div>", 
                    "status": "generated"
                }, 
                "whenHandedOver": "2009-06-17"
            }
        }, 
        {
            "request": {
                "method": "PUT", 
                "url": "Condition/ehealth-Condition-222"
            }, 
            "resource": {
                "clinicalStatus": "active", 
                "code": {
                    "coding": [
                        {
                            "code": "73749009", 
                            "display": "Neonatal jaundice associated with preterm delivery", 
                            "system": "http://snomed.info/sct"
                        }
                    ], 
                    "text": "Neonatal jaundice associated with preterm delivery"
                }, 
                "id": "ehealth-Condition-222", 
                "onsetDateTime": "2005-07-04", 
                "resourceType": "Condition", 
                "subject": {
                    "reference": "Patient/ehealth-1134281"
                }, 
                "text": {
                    "div": "<div xmlns=\"http://www.w3.org/1999/xhtml\">Neonatal jaundice associated with preterm delivery</div>", 
                    "status": "generated"
                }, 
                "verificationStatus": "confirmed"
            }
        }, 
        {
            "request": {
                "method": "PUT", 
                "url": "Condition/ehealth-Condition-223"
            }, 
            "resource": {
                "clinicalStatus": "active", 
                "code": {
                    "coding": [
                        {
                            "code": "95617006", 
                            "display": "Perinatal cyanotic attacks", 
                            "system": "http://snomed.info/sct"
                        }
                    ], 
                    "text": "Perinatal cyanotic attacks"
                }, 
                "id": "ehealth-Condition-223", 
                "onsetDateTime": "2005-07-04", 
                "resourceType": "Condition", 
                "subject": {
                    "reference": "Patient/ehealth-1134281"
                }, 
                "text": {
                    "div": "<div xmlns=\"http://www.w3.org/1999/xhtml\">Perinatal cyanotic attacks</div>", 
                    "status": "generated"
                }, 
                "verificationStatus": "confirmed"
            }
        }, 
        {
            "request": {
                "method": "PUT", 
                "url": "Condition/ehealth-Condition-224"
            }, 
            "resource": {
                "clinicalStatus": "active", 
                "code": {
                    "coding": [
                        {
                            "code": "46775006", 
                            "display": "Respiratory distress syndrome in the newborn", 
                            "system": "http://snomed.info/sct"
                        }
                    ], 
                    "text": "Respiratory distress syndrome in the newborn"
                }, 
                "id": "ehealth-Condition-224", 
                "onsetDateTime": "2005-07-04", 
                "resourceType": "Condition", 
                "subject": {
                    "reference": "Patient/ehealth-1134281"
                }, 
                "text": {
                    "div": "<div xmlns=\"http://www.w3.org/1999/xhtml\">Respiratory distress syndrome in the newborn</div>", 
                    "status": "generated"
                }, 
                "verificationStatus": "confirmed"
            }
        }, 
        {
            "request": {
                "method": "PUT", 
                "url": "Condition/ehealth-Condition-225"
            }, 
            "resource": {
                "clinicalStatus": "active", 
                "code": {
                    "coding": [
                        {
                            "code": "206200000", 
                            "display": "Scalp injury", 
                            "system": "http://snomed.info/sct"
                        }
                    ], 
                    "text": "Scalp injury"
                }, 
                "id": "ehealth-Condition-225", 
                "onsetDateTime": "2005-07-04", 
                "resourceType": "Condition", 
                "subject": {
                    "reference": "Patient/ehealth-1134281"
                }, 
                "text": {
                    "div": "<div xmlns=\"http://www.w3.org/1999/xhtml\">Scalp injury</div>", 
                    "status": "generated"
                }, 
                "verificationStatus": "confirmed"
            }
        }, 
        {
            "request": {
                "method": "PUT", 
                "url": "Condition/ehealth-Condition-226"
            }, 
            "resource": {
                "clinicalStatus": "active", 
                "code": {
                    "coding": [
                        {
                            "code": "442311008", 
                            "display": "Single liveborn, born in hospital, delivered without mention of cesarean section", 
                            "system": "http://snomed.info/sct"
                        }
                    ], 
                    "text": "Single liveborn, born in hospital, delivered without mention of cesarean section"
                }, 
                "id": "ehealth-Condition-226", 
                "onsetDateTime": "2005-07-04", 
                "resourceType": "Condition", 
                "subject": {
                    "reference": "Patient/ehealth-1134281"
                }, 
                "text": {
                    "div": "<div xmlns=\"http://www.w3.org/1999/xhtml\">Single liveborn, born in hospital, delivered without mention of cesarean section</div>", 
                    "status": "generated"
                }, 
                "verificationStatus": "confirmed"
            }
        }, 
        {
            "request": {
                "method": "PUT", 
                "url": "Condition/ehealth-Condition-227"
            }, 
            "resource": {
                "clinicalStatus": "active", 
                "code": {
                    "coding": [
                        {
                            "code": "387712008", 
                            "display": "Neonatal jaundice", 
                            "system": "http://snomed.info/sct"
                        }
                    ], 
                    "text": "Neonatal jaundice"
                }, 
                "id": "ehealth-Condition-227", 
                "onsetDateTime": "2005-07-08", 
                "resourceType": "Condition", 
                "subject": {
                    "reference": "Patient/ehealth-1134281"
                }, 
                "text": {
                    "div": "<div xmlns=\"http://www.w3.org/1999/xhtml\">Neonatal jaundice</div>", 
                    "status": "generated"
                }, 
                "verificationStatus": "confirmed"
            }
        }, 
        {
            "request": {
                "method": "PUT", 
                "url": "Condition/ehealth-Condition-228"
            }, 
            "resource": {
                "clinicalStatus": "active", 
                "code": {
                    "coding": [
                        {
                            "code": "18165001", 
                            "display": "Jaundice", 
                            "system": "http://snomed.info/sct"
                        }
                    ], 
                    "text": "Jaundice"
                }, 
                "id": "ehealth-Condition-228", 
                "onsetDateTime": "2005-07-10", 
                "resourceType": "Condition", 
                "subject": {
                    "reference": "Patient/ehealth-1134281"
                }, 
                "text": {
                    "div": "<div xmlns=\"http://www.w3.org/1999/xhtml\">Jaundice</div>", 
                    "status": "generated"
                }, 
                "verificationStatus": "confirmed"
            }
        }, 
        {
            "request": {
                "method": "PUT", 
                "url": "Condition/ehealth-Condition-229"
            }, 
            "resource": {
                "clinicalStatus": "active", 
                "code": {
                    "coding": [
                        {
                            "code": "54150009", 
                            "display": "Acute upper respiratory infection", 
                            "system": "http://snomed.info/sct"
                        }
                    ], 
                    "text": "Acute upper respiratory infection"
                }, 
                "id": "ehealth-Condition-229", 
                "onsetDateTime": "2005-11-28", 
                "resourceType": "Condition", 
                "subject": {
                    "reference": "Patient/ehealth-1134281"
                }, 
                "text": {
                    "div": "<div xmlns=\"http://www.w3.org/1999/xhtml\">Acute upper respiratory infection</div>", 
                    "status": "generated"
                }, 
                "verificationStatus": "confirmed"
            }
        }, 
        {
            "request": {
                "method": "PUT", 
                "url": "Condition/ehealth-Condition-230"
            }, 
            "resource": {
                "clinicalStatus": "active", 
                "code": {
                    "coding": [
                        {
                            "code": "235595009", 
                            "display": "Gastroesophageal reflux disease", 
                            "system": "http://snomed.info/sct"
                        }
                    ], 
                    "text": "Gastroesophageal reflux disease"
                }, 
                "id": "ehealth-Condition-230", 
                "onsetDateTime": "2006-02-09", 
                "resourceType": "Condition", 
                "subject": {
                    "reference": "Patient/ehealth-1134281"
                }, 
                "text": {
                    "div": "<div xmlns=\"http://www.w3.org/1999/xhtml\">Gastroesophageal reflux disease</div>", 
                    "status": "generated"
                }, 
                "verificationStatus": "confirmed"
            }
        }, 
        {
            "request": {
                "method": "PUT", 
                "url": "Condition/ehealth-Condition-231"
            }, 
            "resource": {
                "clinicalStatus": "active", 
                "code": {
                    "coding": [
                        {
                            "code": "65363002", 
                            "display": "Otitis media", 
                            "system": "http://snomed.info/sct"
                        }
                    ], 
                    "text": "Otitis media"
                }, 
                "id": "ehealth-Condition-231", 
                "onsetDateTime": "2006-08-31", 
                "resourceType": "Condition", 
                "subject": {
                    "reference": "Patient/ehealth-1134281"
                }, 
                "text": {
                    "div": "<div xmlns=\"http://www.w3.org/1999/xhtml\">Otitis media</div>", 
                    "status": "generated"
                }, 
                "verificationStatus": "confirmed"
            }
        }, 
        {
            "request": {
                "method": "PUT", 
                "url": "Condition/ehealth-Condition-232"
            }, 
            "resource": {
                "clinicalStatus": "active", 
                "code": {
                    "coding": [
                        {
                            "code": "25374005", 
                            "display": "Other and unspecified noninfectious gastroenteritis and colitis", 
                            "system": "http://snomed.info/sct"
                        }
                    ], 
                    "text": "Other and unspecified noninfectious gastroenteritis and colitis"
                }, 
                "id": "ehealth-Condition-232", 
                "onsetDateTime": "2006-12-14", 
                "resourceType": "Condition", 
                "subject": {
                    "reference": "Patient/ehealth-1134281"
                }, 
                "text": {
                    "div": "<div xmlns=\"http://www.w3.org/1999/xhtml\">Other and unspecified noninfectious gastroenteritis and colitis</div>", 
                    "status": "generated"
                }, 
                "verificationStatus": "confirmed"
            }
        }, 
        {
            "request": {
                "method": "PUT", 
                "url": "Condition/ehealth-Condition-233"
            }, 
            "resource": {
                "clinicalStatus": "active", 
                "code": {
                    "coding": [
                        {
                            "code": "36971009", 
                            "display": "Acute sinusitis", 
                            "system": "http://snomed.info/sct"
                        }
                    ], 
                    "text": "Acute sinusitis"
                }, 
                "id": "ehealth-Condition-233", 
                "onsetDateTime": "2009-06-17", 
                "resourceType": "Condition", 
                "subject": {
                    "reference": "Patient/ehealth-1134281"
                }, 
                "text": {
                    "div": "<div xmlns=\"http://www.w3.org/1999/xhtml\">Acute sinusitis</div>", 
                    "status": "generated"
                }, 
                "verificationStatus": "confirmed"
            }
        }, 
        {
            "request": {
                "method": "PUT", 
                "url": "Immunization/ehealth-Immunization-10"
            }, 
            "resource": {
                "date": "2009-03-11", 
                "explanation": {
                    "reasonNotGiven": [
                        {
                            "coding": [
                                {
                                    "code": "documentedImmunityOrPreviousDisease", 
                                    "display": "Documented immunity or previous disease", 
                                    "system": "http://smarthealthit.org/terms/codes/ImmunizationRefusalReason#"
                                }
                            ], 
                            "text": "Documented immunity or previous disease"
                        }
                    ]
                }, 
                "id": "ehealth-Immunization-10", 
                "notGiven": true, 
                "patient": {
                    "reference": "Patient/ehealth-1134281"
                }, 
                "primarySource": true, 
                "resourceType": "Immunization", 
                "status": "completed", 
                "text": {
                    "div": "<div xmlns=\"http://www.w3.org/1999/xhtml\">varicella virus vaccine</div>", 
                    "status": "generated"
                }, 
                "vaccineCode": {
                    "coding": [
                        {
                            "code": "21", 
                            "display": "varicella virus vaccine", 
                            "system": "http://www2a.cdc.gov/vaccines/IIS/IISStandards/vaccines.asp?rpt=cvx"
                        }
                    ], 
                    "text": "varicella virus vaccine"
                }
            }
        }, 
        {
            "request": {
                "method": "PUT", 
                "url": "Immunization/ehealth-Immunization-11"
            }, 
            "resource": {
                "date": "2005-11-11", 
                "id": "ehealth-Immunization-11", 
                "notGiven": false, 
                "patient": {
                    "reference": "Patient/ehealth-1134281"
                }, 
                "primarySource": true, 
                "resourceType": "Immunization", 
                "status": "completed", 
                "text": {
                    "div": "<div xmlns=\"http://www.w3.org/1999/xhtml\">hepatitis A and hepatitis B vaccine</div>", 
                    "status": "generated"
                }, 
                "vaccineCode": {
                    "coding": [
                        {
                            "code": "104", 
                            "display": "hepatitis A and hepatitis B vaccine", 
                            "system": "http://www2a.cdc.gov/vaccines/IIS/IISStandards/vaccines.asp?rpt=cvx"
                        }
                    ], 
                    "text": "hepatitis A and hepatitis B vaccine"
                }
            }
        }, 
        {
            "request": {
                "method": "PUT", 
                "url": "Observation/ehealth-smokingstatus-9"
            }, 
            "resource": {
                "category": [
                    {
                        "coding": [
                            {
                                "code": "social-history", 
                                "display": "Social History", 
                                "system": "http://hl7.org/fhir/observation-category"
                            }
                        ], 
                        "text": "Social History"
                    }
                ], 
                "code": {
                    "coding": [
                        {
                            "code": "72166-2", 
                            "display": "Tobacco smoking status", 
                            "system": "http://loinc.org"
                        }
                    ], 
                    "text": "Tobacco smoking status"
                }, 
                "effectiveDateTime": "2016-08-15", 
                "id": "ehealth-smokingstatus-9", 
                "identifier": [
                    {
                        "system": "http://www.bmc.nl/zorgportal/identifiers/observations", 
                        "use": "official", 
                        "value": "ehealth-9"
                    }
                ], 
                "performer": [
                    {
                        "reference": "Practitioner/ehealth-Practitioner-71482713"
                    }
                ], 
                "resourceType": "Observation", 
                "status": "final", 
                "subject": {
                    "reference": "Patient/ehealth-1134281"
                }, 
                "text": {
                    "div": "<div xmlns=\"http://www.w3.org/1999/xhtml\">Tobacco smoking status: Never smoker</div>", 
                    "status": "generated"
                }, 
                "valueCodeableConcept": {
                    "coding": [
                        {
                            "code": "266919005", 
                            "display": "Never smoker", 
                            "system": "http://snomed.info/sct"
                        }
                    ], 
                    "text": "Never smoker"
                }
            }
        }, 
        {
            "request": {
                "method": "PUT", 
                "url": "AllergyIntolerance/ehealth-AllergyIntolerance-22"
            }, 
            "resource": {
                "assertedDate": "2000", 
                "clinicalStatus": "active", 
                "code": {
                    "coding": [
                        {
                            "code": "716186003", 
                            "display": "No known allergies", 
                            "system": "http://snomed.info/sct"
                        }
                    ], 
                    "text": "No known allergies"
                }, 
                "id": "ehealth-AllergyIntolerance-22", 
                "patient": {
                    "reference": "Patient/ehealth-1134281"
                }, 
                "resourceType": "AllergyIntolerance", 
                "text": {
                    "div": "<div xmlns=\"http://www.w3.org/1999/xhtml\">No known allergies</div>", 
                    "status": "generated"
                }, 
                "verificationStatus": "confirmed"
            }
        }
    ], 
    "resourceType": "Bundle", 
    "type": "transaction"
}
