{
    "entry": [
        {
            "request": {
                "method": "PUT", 
                "url": "Patient/ehealth-1642068"
            }, 
            "resource": {
                "active": true, 
                "address": [
                    {
                        "city": "Sapulpa", 
                        "country": "USA", 
                        "line": [
                            "58 River Ave"
                        ], 
                        "postalCode": "74066", 
                        "state": "OK", 
                        "use": "home"
                    }
                ], 
                "birthDate": "1940-12-14", 
                "gender": "female", 
                "generalPractitioner": [
                    {
                        "reference": "Practitioner/ehealth-Practitioner-72004454"
                    }
                ], 
                "id": "ehealth-1642068", 
                "identifier": [
                    {
                        "system": "http://hospital.smarthealthit.org", 
                        "type": {
                            "coding": [
                                {
                                    "code": "MR", 
                                    "display": "Medical Record Number", 
                                    "system": "http://hl7.org/fhir/v2/0203"
                                }
                            ], 
                            "text": "Medical Record Number"
                        }, 
                        "use": "official", 
                        "value": "ehealth-1642068"
                    }
                ], 
                "name": [
                    {
                        "family": "Davis", 
                        "given": [
                            "Betty", 
                            "N"
                        ], 
                        "use": "official"
                    }
                ], 
                "resourceType": "Patient", 
                "telecom": [
                    {
                        "system": "phone", 
                        "use": "mobile", 
                        "value": "800-430-7442"
                    }, 
                    {
                        "system": "email", 
                        "value": "betty.davis@example.com"
                    }
                ], 
                "text": {
                    "div": "<div xmlns=\"http://www.w3.org/1999/xhtml\">Betty Davis</div>", 
                    "status": "generated"
                }
            }
        }, 
        {
            "request": {
                "method": "PUT", 
                "url": "Observation/ehealth-1643-lab"
            }, 
            "resource": {
                "category": [
                    {
                        "coding": [
                            {
                                "code": "laboratory", 
                                "display": "Laboratory", 
                                "system": "http://hl7.org/fhir/observation-category"
                            }
                        ], 
                        "text": "Laboratory"
                    }
                ], 
                "code": {
                    "coding": [
                        {
                            "code": "6298-4", 
                            "display": "Potassium Bld-sCnc", 
                            "system": "http://loinc.org"
                        }
                    ], 
                    "text": "Potassium Bld-sCnc"
                }, 
                "effectiveDateTime": "2005-02-20", 
                "id": "ehealth-1643-lab", 
                "identifier": [
                    {
                        "system": "http://www.bmc.nl/zorgportal/identifiers/observations", 
                        "use": "official", 
                        "value": "ehealth-1643-lab"
                    }
                ], 
                "performer": [
                    {
                        "reference": "Practitioner/ehealth-Practitioner-72004454"
                    }
                ], 
                "referenceRange": [
                    {
                        "high": {
                            "code": "mmol/L", 
                            "system": "http://unitsofmeasure.org", 
                            "unit": "mmol/L", 
                            "value": 4.9
                        }, 
                        "low": {
                            "code": "mmol/L", 
                            "system": "http://unitsofmeasure.org", 
                            "unit": "mmol/L", 
                            "value": 3.5
                        }, 
                        "type": {
                            "coding": [
                                {
                                    "code": "normal", 
                                    "display": "Normal Range", 
                                    "system": "http://hl7.org/fhir/referencerange-meaning"
                                }
                            ], 
                            "text": "Normal Range"
                        }
                    }
                ], 
                "resourceType": "Observation", 
                "status": "unknown", 
                "subject": {
                    "reference": "Patient/ehealth-1642068"
                }, 
                "text": {
                    "div": "<div xmlns=\"http://www.w3.org/1999/xhtml\">2005-02-20: Potassium Bld-sCnc = 3.9 mmol/L</div>", 
                    "status": "generated"
                }, 
                "valueQuantity": {
                    "code": "mmol/L", 
                    "system": "http://unitsofmeasure.org", 
                    "unit": "mmol/L", 
                    "value": 3.9
                }
            }
        }, 
        {
            "request": {
                "method": "PUT", 
                "url": "Observation/ehealth-1644-lab"
            }, 
            "resource": {
                "category": [
                    {
                        "coding": [
                            {
                                "code": "laboratory", 
                                "display": "Laboratory", 
                                "system": "http://hl7.org/fhir/observation-category"
                            }
                        ], 
                        "text": "Laboratory"
                    }
                ], 
                "code": {
                    "coding": [
                        {
                            "code": "28542-9", 
                            "display": "PMV Bld", 
                            "system": "http://loinc.org"
                        }
                    ], 
                    "text": "PMV Bld"
                }, 
                "effectiveDateTime": "2006-01-01", 
                "id": "ehealth-1644-lab", 
                "identifier": [
                    {
                        "system": "http://www.bmc.nl/zorgportal/identifiers/observations", 
                        "use": "official", 
                        "value": "ehealth-1644-lab"
                    }
                ], 
                "performer": [
                    {
                        "reference": "Practitioner/ehealth-Practitioner-72004454"
                    }
                ], 
                "referenceRange": [
                    {
                        "high": {
                            "code": "fL", 
                            "system": "http://unitsofmeasure.org", 
                            "unit": "fL", 
                            "value": 9.5
                        }, 
                        "low": {
                            "code": "fL", 
                            "system": "http://unitsofmeasure.org", 
                            "unit": "fL", 
                            "value": 6.0
                        }, 
                        "type": {
                            "coding": [
                                {
                                    "code": "normal", 
                                    "display": "Normal Range", 
                                    "system": "http://hl7.org/fhir/referencerange-meaning"
                                }
                            ], 
                            "text": "Normal Range"
                        }
                    }
                ], 
                "resourceType": "Observation", 
                "status": "unknown", 
                "subject": {
                    "reference": "Patient/ehealth-1642068"
                }, 
                "text": {
                    "div": "<div xmlns=\"http://www.w3.org/1999/xhtml\">2006-01-01: PMV Bld = 9.2 fL</div>", 
                    "status": "generated"
                }, 
                "valueQuantity": {
                    "code": "fL", 
                    "system": "http://unitsofmeasure.org", 
                    "unit": "fL", 
                    "value": 9.2
                }
            }
        }, 
        {
            "request": {
                "method": "PUT", 
                "url": "Observation/ehealth-1645-lab"
            }, 
            "resource": {
                "category": [
                    {
                        "coding": [
                            {
                                "code": "laboratory", 
                                "display": "Laboratory", 
                                "system": "http://hl7.org/fhir/observation-category"
                            }
                        ], 
                        "text": "Laboratory"
                    }
                ], 
                "code": {
                    "coding": [
                        {
                            "code": "30385-9", 
                            "display": "RDW RBC-Rto", 
                            "system": "http://loinc.org"
                        }
                    ], 
                    "text": "RDW RBC-Rto"
                }, 
                "effectiveDateTime": "2006-01-01", 
                "id": "ehealth-1645-lab", 
                "identifier": [
                    {
                        "system": "http://www.bmc.nl/zorgportal/identifiers/observations", 
                        "use": "official", 
                        "value": "ehealth-1645-lab"
                    }
                ], 
                "performer": [
                    {
                        "reference": "Practitioner/ehealth-Practitioner-72004454"
                    }
                ], 
                "referenceRange": [
                    {
                        "high": {
                            "code": "%", 
                            "system": "http://unitsofmeasure.org", 
                            "unit": "%", 
                            "value": 14.0
                        }, 
                        "low": {
                            "code": "%", 
                            "system": "http://unitsofmeasure.org", 
                            "unit": "%", 
                            "value": 11.5
                        }, 
                        "type": {
                            "coding": [
                                {
                                    "code": "normal", 
                                    "display": "Normal Range", 
                                    "system": "http://hl7.org/fhir/referencerange-meaning"
                                }
                            ], 
                            "text": "Normal Range"
                        }
                    }
                ], 
                "resourceType": "Observation", 
                "status": "unknown", 
                "subject": {
                    "reference": "Patient/ehealth-1642068"
                }, 
                "text": {
                    "div": "<div xmlns=\"http://www.w3.org/1999/xhtml\">2006-01-01: RDW RBC-Rto = 13.5 %</div>", 
                    "status": "generated"
                }, 
                "valueQuantity": {
                    "code": "%", 
                    "system": "http://unitsofmeasure.org", 
                    "unit": "%", 
                    "value": 13.5
                }
            }
        }, 
        {
            "request": {
                "method": "PUT", 
                "url": "Observation/ehealth-1646-lab"
            }, 
            "resource": {
                "category": [
                    {
                        "coding": [
                            {
                                "code": "laboratory", 
                                "display": "Laboratory", 
                                "system": "http://hl7.org/fhir/observation-category"
                            }
                        ], 
                        "text": "Laboratory"
                    }
                ], 
                "code": {
                    "coding": [
                        {
                            "code": "26464-8", 
                            "display": "WBC # Bld", 
                            "system": "http://loinc.org"
                        }
                    ], 
                    "text": "WBC # Bld"
                }, 
                "effectiveDateTime": "2006-01-01", 
                "id": "ehealth-1646-lab", 
                "identifier": [
                    {
                        "system": "http://www.bmc.nl/zorgportal/identifiers/observations", 
                        "use": "official", 
                        "value": "ehealth-1646-lab"
                    }
                ], 
                "performer": [
                    {
                        "reference": "Practitioner/ehealth-Practitioner-72004454"
                    }
                ], 
                "referenceRange": [
                    {
                        "high": {
                            "code": "10*3/uL", 
                            "system": "http://unitsofmeasure.org", 
                            "unit": "10*3/uL", 
                            "value": 10.5
                        }, 
                        "low": {
                            "code": "10*3/uL", 
                            "system": "http://unitsofmeasure.org", 
                            "unit": "10*3/uL", 
                            "value": 4.0
                        }, 
                        "type": {
                            "coding": [
                                {
                                    "code": "normal", 
                                    "display": "Normal Range", 
                                    "system": "http://hl7.org/fhir/referencerange-meaning"
                                }
                            ], 
                            "text": "Normal Range"
                        }
                    }
                ], 
                "resourceType": "Observation", 
                "status": "unknown", 
                "subject": {
                    "reference": "Patient/ehealth-1642068"
                }, 
                "text": {
                    "div": "<div xmlns=\"http://www.w3.org/1999/xhtml\">2006-01-01: WBC # Bld = 8.3 10*3/uL</div>", 
                    "status": "generated"
                }, 
                "valueQuantity": {
                    "code": "10*3/uL", 
                    "system": "http://unitsofmeasure.org", 
                    "unit": "10*3/uL", 
                    "value": 8.3
                }
            }
        }, 
        {
            "request": {
                "method": "PUT", 
                "url": "Observation/ehealth-1647-lab"
            }, 
            "resource": {
                "category": [
                    {
                        "coding": [
                            {
                                "code": "laboratory", 
                                "display": "Laboratory", 
                                "system": "http://hl7.org/fhir/observation-category"
                            }
                        ], 
                        "text": "Laboratory"
                    }
                ], 
                "code": {
                    "coding": [
                        {
                            "code": "789-8", 
                            "display": "RBC # Bld Auto", 
                            "system": "http://loinc.org"
                        }
                    ], 
                    "text": "RBC # Bld Auto"
                }, 
                "effectiveDateTime": "2006-01-01", 
                "id": "ehealth-1647-lab", 
                "identifier": [
                    {
                        "system": "http://www.bmc.nl/zorgportal/identifiers/observations", 
                        "use": "official", 
                        "value": "ehealth-1647-lab"
                    }
                ], 
                "performer": [
                    {
                        "reference": "Practitioner/ehealth-Practitioner-72004454"
                    }
                ], 
                "referenceRange": [
                    {
                        "high": {
                            "code": "10*6/uL", 
                            "system": "http://unitsofmeasure.org", 
                            "unit": "10*6/uL", 
                            "value": 5.4
                        }, 
                        "low": {
                            "code": "10*6/uL", 
                            "system": "http://unitsofmeasure.org", 
                            "unit": "10*6/uL", 
                            "value": 4.2
                        }, 
                        "type": {
                            "coding": [
                                {
                                    "code": "normal", 
                                    "display": "Normal Range", 
                                    "system": "http://hl7.org/fhir/referencerange-meaning"
                                }
                            ], 
                            "text": "Normal Range"
                        }
                    }
                ], 
                "resourceType": "Observation", 
                "status": "unknown", 
                "subject": {
                    "reference": "Patient/ehealth-1642068"
                }, 
                "text": {
                    "div": "<div xmlns=\"http://www.w3.org/1999/xhtml\">2006-01-01: RBC # Bld Auto = 4.83 10*6/uL</div>", 
                    "status": "generated"
                }, 
                "valueQuantity": {
                    "code": "10*6/uL", 
                    "system": "http://unitsofmeasure.org", 
                    "unit": "10*6/uL", 
                    "value": 4.83
                }
            }
        }, 
        {
            "request": {
                "method": "PUT", 
                "url": "Observation/ehealth-1648-lab"
            }, 
            "resource": {
                "category": [
                    {
                        "coding": [
                            {
                                "code": "laboratory", 
                                "display": "Laboratory", 
                                "system": "http://hl7.org/fhir/observation-category"
                            }
                        ], 
                        "text": "Laboratory"
                    }
                ], 
                "code": {
                    "coding": [
                        {
                            "code": "2345-7", 
                            "display": "Glucose SerPl-mCnc", 
                            "system": "http://loinc.org"
                        }
                    ], 
                    "text": "Glucose SerPl-mCnc"
                }, 
                "effectiveDateTime": "2006-01-01", 
                "id": "ehealth-1648-lab", 
                "identifier": [
                    {
                        "system": "http://www.bmc.nl/zorgportal/identifiers/observations", 
                        "use": "official", 
                        "value": "ehealth-1648-lab"
                    }
                ], 
                "performer": [
                    {
                        "reference": "Practitioner/ehealth-Practitioner-72004454"
                    }
                ], 
                "referenceRange": [
                    {
                        "high": {
                            "code": "mg/dL", 
                            "system": "http://unitsofmeasure.org", 
                            "unit": "mg/dL", 
                            "value": 99.0
                        }, 
                        "low": {
                            "code": "mg/dL", 
                            "system": "http://unitsofmeasure.org", 
                            "unit": "mg/dL", 
                            "value": 65.0
                        }, 
                        "type": {
                            "coding": [
                                {
                                    "code": "normal", 
                                    "display": "Normal Range", 
                                    "system": "http://hl7.org/fhir/referencerange-meaning"
                                }
                            ], 
                            "text": "Normal Range"
                        }
                    }
                ], 
                "resourceType": "Observation", 
                "status": "unknown", 
                "subject": {
                    "reference": "Patient/ehealth-1642068"
                }, 
                "text": {
                    "div": "<div xmlns=\"http://www.w3.org/1999/xhtml\">2006-01-01: Glucose SerPl-mCnc = 94 mg/dL</div>", 
                    "status": "generated"
                }, 
                "valueQuantity": {
                    "code": "mg/dL", 
                    "system": "http://unitsofmeasure.org", 
                    "unit": "mg/dL", 
                    "value": 94.0
                }
            }
        }, 
        {
            "request": {
                "method": "PUT", 
                "url": "Observation/ehealth-1649-lab"
            }, 
            "resource": {
                "category": [
                    {
                        "coding": [
                            {
                                "code": "laboratory", 
                                "display": "Laboratory", 
                                "system": "http://hl7.org/fhir/observation-category"
                            }
                        ], 
                        "text": "Laboratory"
                    }
                ], 
                "code": {
                    "coding": [
                        {
                            "code": "3094-0", 
                            "display": "BUN SerPl-mCnc", 
                            "system": "http://loinc.org"
                        }
                    ], 
                    "text": "BUN SerPl-mCnc"
                }, 
                "effectiveDateTime": "2006-01-01", 
                "id": "ehealth-1649-lab", 
                "identifier": [
                    {
                        "system": "http://www.bmc.nl/zorgportal/identifiers/observations", 
                        "use": "official", 
                        "value": "ehealth-1649-lab"
                    }
                ], 
                "performer": [
                    {
                        "reference": "Practitioner/ehealth-Practitioner-72004454"
                    }
                ], 
                "referenceRange": [
                    {
                        "high": {
                            "code": "mg/dL", 
                            "system": "http://unitsofmeasure.org", 
                            "unit": "mg/dL", 
                            "value": 25.0
                        }, 
                        "low": {
                            "code": "mg/dL", 
                            "system": "http://unitsofmeasure.org", 
                            "unit": "mg/dL", 
                            "value": 8.0
                        }, 
                        "type": {
                            "coding": [
                                {
                                    "code": "normal", 
                                    "display": "Normal Range", 
                                    "system": "http://hl7.org/fhir/referencerange-meaning"
                                }
                            ], 
                            "text": "Normal Range"
                        }
                    }
                ], 
                "resourceType": "Observation", 
                "status": "unknown", 
                "subject": {
                    "reference": "Patient/ehealth-1642068"
                }, 
                "text": {
                    "div": "<div xmlns=\"http://www.w3.org/1999/xhtml\">2006-01-01: BUN SerPl-mCnc = 13 mg/dL</div>", 
                    "status": "generated"
                }, 
                "valueQuantity": {
                    "code": "mg/dL", 
                    "system": "http://unitsofmeasure.org", 
                    "unit": "mg/dL", 
                    "value": 13.0
                }
            }
        }, 
        {
            "request": {
                "method": "PUT", 
                "url": "Observation/ehealth-1650-lab"
            }, 
            "resource": {
                "category": [
                    {
                        "coding": [
                            {
                                "code": "laboratory", 
                                "display": "Laboratory", 
                                "system": "http://hl7.org/fhir/observation-category"
                            }
                        ], 
                        "text": "Laboratory"
                    }
                ], 
                "code": {
                    "coding": [
                        {
                            "code": "2823-3", 
                            "display": "Potassium SerPl-sCnc", 
                            "system": "http://loinc.org"
                        }
                    ], 
                    "text": "Potassium SerPl-sCnc"
                }, 
                "effectiveDateTime": "2006-01-01", 
                "id": "ehealth-1650-lab", 
                "identifier": [
                    {
                        "system": "http://www.bmc.nl/zorgportal/identifiers/observations", 
                        "use": "official", 
                        "value": "ehealth-1650-lab"
                    }
                ], 
                "performer": [
                    {
                        "reference": "Practitioner/ehealth-Practitioner-72004454"
                    }
                ], 
                "referenceRange": [
                    {
                        "high": {
                            "code": "mmol/L", 
                            "system": "http://unitsofmeasure.org", 
                            "unit": "mmol/L", 
                            "value": 5.5
                        }, 
                        "low": {
                            "code": "mmol/L", 
                            "system": "http://unitsofmeasure.org", 
                            "unit": "mmol/L", 
                            "value": 3.6
                        }, 
                        "type": {
                            "coding": [
                                {
                                    "code": "normal", 
                                    "display": "Normal Range", 
                                    "system": "http://hl7.org/fhir/referencerange-meaning"
                                }
                            ], 
                            "text": "Normal Range"
                        }
                    }
                ], 
                "resourceType": "Observation", 
                "status": "unknown", 
                "subject": {
                    "reference": "Patient/ehealth-1642068"
                }, 
                "text": {
                    "div": "<div xmlns=\"http://www.w3.org/1999/xhtml\">2006-01-01: Potassium SerPl-sCnc = 3.8 mmol/L</div>", 
                    "status": "generated"
                }, 
                "valueQuantity": {
                    "code": "mmol/L", 
                    "system": "http://unitsofmeasure.org", 
                    "unit": "mmol/L", 
                    "value": 3.8
                }
            }
        }, 
        {
            "request": {
                "method": "PUT", 
                "url": "Observation/ehealth-1651-lab"
            }, 
            "resource": {
                "category": [
                    {
                        "coding": [
                            {
                                "code": "laboratory", 
                                "display": "Laboratory", 
                                "system": "http://hl7.org/fhir/observation-category"
                            }
                        ], 
                        "text": "Laboratory"
                    }
                ], 
                "code": {
                    "coding": [
                        {
                            "code": "2075-0", 
                            "display": "Chloride SerPl-sCnc", 
                            "system": "http://loinc.org"
                        }
                    ], 
                    "text": "Chloride SerPl-sCnc"
                }, 
                "effectiveDateTime": "2006-01-01", 
                "id": "ehealth-1651-lab", 
                "identifier": [
                    {
                        "system": "http://www.bmc.nl/zorgportal/identifiers/observations", 
                        "use": "official", 
                        "value": "ehealth-1651-lab"
                    }
                ], 
                "performer": [
                    {
                        "reference": "Practitioner/ehealth-Practitioner-72004454"
                    }
                ], 
                "referenceRange": [
                    {
                        "high": {
                            "code": "mmol/L", 
                            "system": "http://unitsofmeasure.org", 
                            "unit": "mmol/L", 
                            "value": 108.0
                        }, 
                        "low": {
                            "code": "mmol/L", 
                            "system": "http://unitsofmeasure.org", 
                            "unit": "mmol/L", 
                            "value": 96.0
                        }, 
                        "type": {
                            "coding": [
                                {
                                    "code": "normal", 
                                    "display": "Normal Range", 
                                    "system": "http://hl7.org/fhir/referencerange-meaning"
                                }
                            ], 
                            "text": "Normal Range"
                        }
                    }
                ], 
                "resourceType": "Observation", 
                "status": "unknown", 
                "subject": {
                    "reference": "Patient/ehealth-1642068"
                }, 
                "text": {
                    "div": "<div xmlns=\"http://www.w3.org/1999/xhtml\">2006-01-01: Chloride SerPl-sCnc = 101 mmol/L</div>", 
                    "status": "generated"
                }, 
                "valueQuantity": {
                    "code": "mmol/L", 
                    "system": "http://unitsofmeasure.org", 
                    "unit": "mmol/L", 
                    "value": 101.0
                }
            }
        }, 
        {
            "request": {
                "method": "PUT", 
                "url": "Observation/ehealth-1652-lab"
            }, 
            "resource": {
                "category": [
                    {
                        "coding": [
                            {
                                "code": "laboratory", 
                                "display": "Laboratory", 
                                "system": "http://hl7.org/fhir/observation-category"
                            }
                        ], 
                        "text": "Laboratory"
                    }
                ], 
                "code": {
                    "coding": [
                        {
                            "code": "26511-6", 
                            "display": "Neutrophils NFr Bld", 
                            "system": "http://loinc.org"
                        }
                    ], 
                    "text": "Neutrophils NFr Bld"
                }, 
                "effectiveDateTime": "2006-01-01", 
                "id": "ehealth-1652-lab", 
                "identifier": [
                    {
                        "system": "http://www.bmc.nl/zorgportal/identifiers/observations", 
                        "use": "official", 
                        "value": "ehealth-1652-lab"
                    }
                ], 
                "performer": [
                    {
                        "reference": "Practitioner/ehealth-Practitioner-72004454"
                    }
                ], 
                "referenceRange": [
                    {
                        "high": {
                            "code": "%", 
                            "system": "http://unitsofmeasure.org", 
                            "unit": "%", 
                            "value": 74.0
                        }, 
                        "low": {
                            "code": "%", 
                            "system": "http://unitsofmeasure.org", 
                            "unit": "%", 
                            "value": 44.0
                        }, 
                        "type": {
                            "coding": [
                                {
                                    "code": "normal", 
                                    "display": "Normal Range", 
                                    "system": "http://hl7.org/fhir/referencerange-meaning"
                                }
                            ], 
                            "text": "Normal Range"
                        }
                    }
                ], 
                "resourceType": "Observation", 
                "status": "unknown", 
                "subject": {
                    "reference": "Patient/ehealth-1642068"
                }, 
                "text": {
                    "div": "<div xmlns=\"http://www.w3.org/1999/xhtml\">2006-01-01: Neutrophils NFr Bld = 61 %</div>", 
                    "status": "generated"
                }, 
                "valueQuantity": {
                    "code": "%", 
                    "system": "http://unitsofmeasure.org", 
                    "unit": "%", 
                    "value": 61.0
                }
            }
        }, 
        {
            "request": {
                "method": "PUT", 
                "url": "Observation/ehealth-1653-lab"
            }, 
            "resource": {
                "category": [
                    {
                        "coding": [
                            {
                                "code": "laboratory", 
                                "display": "Laboratory", 
                                "system": "http://hl7.org/fhir/observation-category"
                            }
                        ], 
                        "text": "Laboratory"
                    }
                ], 
                "code": {
                    "coding": [
                        {
                            "code": "786-4", 
                            "display": "MCHC RBC Auto-mCnc", 
                            "system": "http://loinc.org"
                        }
                    ], 
                    "text": "MCHC RBC Auto-mCnc"
                }, 
                "effectiveDateTime": "2006-01-01", 
                "id": "ehealth-1653-lab", 
                "identifier": [
                    {
                        "system": "http://www.bmc.nl/zorgportal/identifiers/observations", 
                        "use": "official", 
                        "value": "ehealth-1653-lab"
                    }
                ], 
                "performer": [
                    {
                        "reference": "Practitioner/ehealth-Practitioner-72004454"
                    }
                ], 
                "referenceRange": [
                    {
                        "high": {
                            "code": "g/dL", 
                            "system": "http://unitsofmeasure.org", 
                            "unit": "g/dL", 
                            "value": 36.0
                        }, 
                        "low": {
                            "code": "g/dL", 
                            "system": "http://unitsofmeasure.org", 
                            "unit": "g/dL", 
                            "value": 32.0
                        }, 
                        "type": {
                            "coding": [
                                {
                                    "code": "normal", 
                                    "display": "Normal Range", 
                                    "system": "http://hl7.org/fhir/referencerange-meaning"
                                }
                            ], 
                            "text": "Normal Range"
                        }
                    }
                ], 
                "resourceType": "Observation", 
                "status": "unknown", 
                "subject": {
                    "reference": "Patient/ehealth-1642068"
                }, 
                "text": {
                    "div": "<div xmlns=\"http://www.w3.org/1999/xhtml\">2006-01-01: MCHC RBC Auto-mCnc = 34.1 g/dL</div>", 
                    "status": "generated"
                }, 
                "valueQuantity": {
                    "code": "g/dL", 
                    "system": "http://unitsofmeasure.org", 
                    "unit": "g/dL", 
                    "value": 34.1
                }
            }
        }, 
        {
            "request": {
                "method": "PUT", 
                "url": "Observation/ehealth-1654-lab"
            }, 
            "resource": {
                "category": [
                    {
                        "coding": [
                            {
                                "code": "laboratory", 
                                "display": "Laboratory", 
                                "system": "http://hl7.org/fhir/observation-category"
                            }
                        ], 
                        "text": "Laboratory"
                    }
                ], 
                "code": {
                    "coding": [
                        {
                            "code": "26485-3", 
                            "display": "Monocytes NFr Bld", 
                            "system": "http://loinc.org"
                        }
                    ], 
                    "text": "Monocytes NFr Bld"
                }, 
                "effectiveDateTime": "2006-01-01", 
                "id": "ehealth-1654-lab", 
                "identifier": [
                    {
                        "system": "http://www.bmc.nl/zorgportal/identifiers/observations", 
                        "use": "official", 
                        "value": "ehealth-1654-lab"
                    }
                ], 
                "performer": [
                    {
                        "reference": "Practitioner/ehealth-Practitioner-72004454"
                    }
                ], 
                "referenceRange": [
                    {
                        "high": {
                            "code": "%", 
                            "system": "http://unitsofmeasure.org", 
                            "unit": "%", 
                            "value": 13.0
                        }, 
                        "low": {
                            "code": "%", 
                            "system": "http://unitsofmeasure.org", 
                            "unit": "%", 
                            "value": 2.0
                        }, 
                        "type": {
                            "coding": [
                                {
                                    "code": "normal", 
                                    "display": "Normal Range", 
                                    "system": "http://hl7.org/fhir/referencerange-meaning"
                                }
                            ], 
                            "text": "Normal Range"
                        }
                    }
                ], 
                "resourceType": "Observation", 
                "status": "unknown", 
                "subject": {
                    "reference": "Patient/ehealth-1642068"
                }, 
                "text": {
                    "div": "<div xmlns=\"http://www.w3.org/1999/xhtml\">2006-01-01: Monocytes NFr Bld = 7 %</div>", 
                    "status": "generated"
                }, 
                "valueQuantity": {
                    "code": "%", 
                    "system": "http://unitsofmeasure.org", 
                    "unit": "%", 
                    "value": 7.0
                }
            }
        }, 
        {
            "request": {
                "method": "PUT", 
                "url": "Observation/ehealth-1655-lab"
            }, 
            "resource": {
                "category": [
                    {
                        "coding": [
                            {
                                "code": "laboratory", 
                                "display": "Laboratory", 
                                "system": "http://hl7.org/fhir/observation-category"
                            }
                        ], 
                        "text": "Laboratory"
                    }
                ], 
                "code": {
                    "coding": [
                        {
                            "code": "26450-7", 
                            "display": "Eosinophil NFr Bld", 
                            "system": "http://loinc.org"
                        }
                    ], 
                    "text": "Eosinophil NFr Bld"
                }, 
                "effectiveDateTime": "2006-01-01", 
                "id": "ehealth-1655-lab", 
                "identifier": [
                    {
                        "system": "http://www.bmc.nl/zorgportal/identifiers/observations", 
                        "use": "official", 
                        "value": "ehealth-1655-lab"
                    }
                ], 
                "performer": [
                    {
                        "reference": "Practitioner/ehealth-Practitioner-72004454"
                    }
                ], 
                "referenceRange": [
                    {
                        "high": {
                            "code": "%", 
                            "system": "http://unitsofmeasure.org", 
                            "unit": "%", 
                            "value": 7.0
                        }, 
                        "low": {
                            "code": "%", 
                            "system": "http://unitsofmeasure.org", 
                            "unit": "%", 
                            "value": 0.0
                        }, 
                        "type": {
                            "coding": [
                                {
                                    "code": "normal", 
                                    "display": "Normal Range", 
                                    "system": "http://hl7.org/fhir/referencerange-meaning"
                                }
                            ], 
                            "text": "Normal Range"
                        }
                    }
                ], 
                "resourceType": "Observation", 
                "status": "unknown", 
                "subject": {
                    "reference": "Patient/ehealth-1642068"
                }, 
                "text": {
                    "div": "<div xmlns=\"http://www.w3.org/1999/xhtml\">2006-01-01: Eosinophil NFr Bld = 5 %</div>", 
                    "status": "generated"
                }, 
                "valueQuantity": {
                    "code": "%", 
                    "system": "http://unitsofmeasure.org", 
                    "unit": "%", 
                    "value": 5.0
                }
            }
        }, 
        {
            "request": {
                "method": "PUT", 
                "url": "Observation/ehealth-1656-lab"
            }, 
            "resource": {
                "category": [
                    {
                        "coding": [
                            {
                                "code": "laboratory", 
                                "display": "Laboratory", 
                                "system": "http://hl7.org/fhir/observation-category"
                            }
                        ], 
                        "text": "Laboratory"
                    }
                ], 
                "code": {
                    "coding": [
                        {
                            "code": "718-7", 
                            "display": "Hgb Bld-mCnc", 
                            "system": "http://loinc.org"
                        }
                    ], 
                    "text": "Hgb Bld-mCnc"
                }, 
                "effectiveDateTime": "2006-01-01", 
                "id": "ehealth-1656-lab", 
                "identifier": [
                    {
                        "system": "http://www.bmc.nl/zorgportal/identifiers/observations", 
                        "use": "official", 
                        "value": "ehealth-1656-lab"
                    }
                ], 
                "performer": [
                    {
                        "reference": "Practitioner/ehealth-Practitioner-72004454"
                    }
                ], 
                "referenceRange": [
                    {
                        "high": {
                            "code": "g/dL", 
                            "system": "http://unitsofmeasure.org", 
                            "unit": "g/dL", 
                            "value": 16.0
                        }, 
                        "low": {
                            "code": "g/dL", 
                            "system": "http://unitsofmeasure.org", 
                            "unit": "g/dL", 
                            "value": 12.5
                        }, 
                        "type": {
                            "coding": [
                                {
                                    "code": "normal", 
                                    "display": "Normal Range", 
                                    "system": "http://hl7.org/fhir/referencerange-meaning"
                                }
                            ], 
                            "text": "Normal Range"
                        }
                    }
                ], 
                "resourceType": "Observation", 
                "status": "unknown", 
                "subject": {
                    "reference": "Patient/ehealth-1642068"
                }, 
                "text": {
                    "div": "<div xmlns=\"http://www.w3.org/1999/xhtml\">2006-01-01: Hgb Bld-mCnc = 15.1 g/dL</div>", 
                    "status": "generated"
                }, 
                "valueQuantity": {
                    "code": "g/dL", 
                    "system": "http://unitsofmeasure.org", 
                    "unit": "g/dL", 
                    "value": 15.1
                }
            }
        }, 
        {
            "request": {
                "method": "PUT", 
                "url": "Observation/ehealth-1657-lab"
            }, 
            "resource": {
                "category": [
                    {
                        "coding": [
                            {
                                "code": "laboratory", 
                                "display": "Laboratory", 
                                "system": "http://hl7.org/fhir/observation-category"
                            }
                        ], 
                        "text": "Laboratory"
                    }
                ], 
                "code": {
                    "coding": [
                        {
                            "code": "6768-6", 
                            "display": "ALP SerPl-cCnc", 
                            "system": "http://loinc.org"
                        }
                    ], 
                    "text": "ALP SerPl-cCnc"
                }, 
                "effectiveDateTime": "2006-01-01", 
                "id": "ehealth-1657-lab", 
                "identifier": [
                    {
                        "system": "http://www.bmc.nl/zorgportal/identifiers/observations", 
                        "use": "official", 
                        "value": "ehealth-1657-lab"
                    }
                ], 
                "performer": [
                    {
                        "reference": "Practitioner/ehealth-Practitioner-72004454"
                    }
                ], 
                "referenceRange": [
                    {
                        "high": {
                            "code": "U/L", 
                            "system": "http://unitsofmeasure.org", 
                            "unit": "U/L", 
                            "value": 125.0
                        }, 
                        "low": {
                            "code": "U/L", 
                            "system": "http://unitsofmeasure.org", 
                            "unit": "U/L", 
                            "value": 20.0
                        }, 
                        "type": {
                            "coding": [
                                {
                                    "code": "normal", 
                                    "display": "Normal Range", 
                                    "system": "http://hl7.org/fhir/referencerange-meaning"
                                }
                            ], 
                            "text": "Normal Range"
                        }
                    }
                ], 
                "resourceType": "Observation", 
                "status": "unknown", 
                "subject": {
                    "reference": "Patient/ehealth-1642068"
                }, 
                "text": {
                    "div": "<div xmlns=\"http://www.w3.org/1999/xhtml\">2006-01-01: ALP SerPl-cCnc = 122 U/L</div>", 
                    "status": "generated"
                }, 
                "valueQuantity": {
                    "code": "U/L", 
                    "system": "http://unitsofmeasure.org", 
                    "unit": "U/L", 
                    "value": 122.0
                }
            }
        }, 
        {
            "request": {
                "method": "PUT", 
                "url": "Observation/ehealth-1658-lab"
            }, 
            "resource": {
                "category": [
                    {
                        "coding": [
                            {
                                "code": "laboratory", 
                                "display": "Laboratory", 
                                "system": "http://hl7.org/fhir/observation-category"
                            }
                        ], 
                        "text": "Laboratory"
                    }
                ], 
                "code": {
                    "coding": [
                        {
                            "code": "2885-2", 
                            "display": "Prot SerPl-mCnc", 
                            "system": "http://loinc.org"
                        }
                    ], 
                    "text": "Prot SerPl-mCnc"
                }, 
                "effectiveDateTime": "2006-01-01", 
                "id": "ehealth-1658-lab", 
                "identifier": [
                    {
                        "system": "http://www.bmc.nl/zorgportal/identifiers/observations", 
                        "use": "official", 
                        "value": "ehealth-1658-lab"
                    }
                ], 
                "performer": [
                    {
                        "reference": "Practitioner/ehealth-Practitioner-72004454"
                    }
                ], 
                "referenceRange": [
                    {
                        "high": {
                            "code": "g/dL", 
                            "system": "http://unitsofmeasure.org", 
                            "unit": "g/dL", 
                            "value": 8.3
                        }, 
                        "low": {
                            "code": "g/dL", 
                            "system": "http://unitsofmeasure.org", 
                            "unit": "g/dL", 
                            "value": 6.0
                        }, 
                        "type": {
                            "coding": [
                                {
                                    "code": "normal", 
                                    "display": "Normal Range", 
                                    "system": "http://hl7.org/fhir/referencerange-meaning"
                                }
                            ], 
                            "text": "Normal Range"
                        }
                    }
                ], 
                "resourceType": "Observation", 
                "status": "unknown", 
                "subject": {
                    "reference": "Patient/ehealth-1642068"
                }, 
                "text": {
                    "div": "<div xmlns=\"http://www.w3.org/1999/xhtml\">2006-01-01: Prot SerPl-mCnc = 7.5 g/dL</div>", 
                    "status": "generated"
                }, 
                "valueQuantity": {
                    "code": "g/dL", 
                    "system": "http://unitsofmeasure.org", 
                    "unit": "g/dL", 
                    "value": 7.5
                }
            }
        }, 
        {
            "request": {
                "method": "PUT", 
                "url": "Observation/ehealth-1659-lab"
            }, 
            "resource": {
                "category": [
                    {
                        "coding": [
                            {
                                "code": "laboratory", 
                                "display": "Laboratory", 
                                "system": "http://hl7.org/fhir/observation-category"
                            }
                        ], 
                        "text": "Laboratory"
                    }
                ], 
                "code": {
                    "coding": [
                        {
                            "code": "1751-7", 
                            "display": "Albumin SerPl-mCnc", 
                            "system": "http://loinc.org"
                        }
                    ], 
                    "text": "Albumin SerPl-mCnc"
                }, 
                "effectiveDateTime": "2006-01-01", 
                "id": "ehealth-1659-lab", 
                "identifier": [
                    {
                        "system": "http://www.bmc.nl/zorgportal/identifiers/observations", 
                        "use": "official", 
                        "value": "ehealth-1659-lab"
                    }
                ], 
                "performer": [
                    {
                        "reference": "Practitioner/ehealth-Practitioner-72004454"
                    }
                ], 
                "referenceRange": [
                    {
                        "high": {
                            "code": "g/dL", 
                            "system": "http://unitsofmeasure.org", 
                            "unit": "g/dL", 
                            "value": 5.2
                        }, 
                        "low": {
                            "code": "g/dL", 
                            "system": "http://unitsofmeasure.org", 
                            "unit": "g/dL", 
                            "value": 3.2
                        }, 
                        "type": {
                            "coding": [
                                {
                                    "code": "normal", 
                                    "display": "Normal Range", 
                                    "system": "http://hl7.org/fhir/referencerange-meaning"
                                }
                            ], 
                            "text": "Normal Range"
                        }
                    }
                ], 
                "resourceType": "Observation", 
                "status": "unknown", 
                "subject": {
                    "reference": "Patient/ehealth-1642068"
                }, 
                "text": {
                    "div": "<div xmlns=\"http://www.w3.org/1999/xhtml\">2006-01-01: Albumin SerPl-mCnc = 4.6 g/dL</div>", 
                    "status": "generated"
                }, 
                "valueQuantity": {
                    "code": "g/dL", 
                    "system": "http://unitsofmeasure.org", 
                    "unit": "g/dL", 
                    "value": 4.6
                }
            }
        }, 
        {
            "request": {
                "method": "PUT", 
                "url": "Observation/ehealth-1660-lab"
            }, 
            "resource": {
                "category": [
                    {
                        "coding": [
                            {
                                "code": "laboratory", 
                                "display": "Laboratory", 
                                "system": "http://hl7.org/fhir/observation-category"
                            }
                        ], 
                        "text": "Laboratory"
                    }
                ], 
                "code": {
                    "coding": [
                        {
                            "code": "1975-2", 
                            "display": "Bilirub SerPl-mCnc", 
                            "system": "http://loinc.org"
                        }
                    ], 
                    "text": "Bilirub SerPl-mCnc"
                }, 
                "effectiveDateTime": "2006-01-01", 
                "id": "ehealth-1660-lab", 
                "identifier": [
                    {
                        "system": "http://www.bmc.nl/zorgportal/identifiers/observations", 
                        "use": "official", 
                        "value": "ehealth-1660-lab"
                    }
                ], 
                "performer": [
                    {
                        "reference": "Practitioner/ehealth-Practitioner-72004454"
                    }
                ], 
                "referenceRange": [
                    {
                        "high": {
                            "code": "mg/dL", 
                            "system": "http://unitsofmeasure.org", 
                            "unit": "mg/dL", 
                            "value": 1.0
                        }, 
                        "low": {
                            "code": "mg/dL", 
                            "system": "http://unitsofmeasure.org", 
                            "unit": "mg/dL", 
                            "value": 0.2
                        }, 
                        "type": {
                            "coding": [
                                {
                                    "code": "normal", 
                                    "display": "Normal Range", 
                                    "system": "http://hl7.org/fhir/referencerange-meaning"
                                }
                            ], 
                            "text": "Normal Range"
                        }
                    }
                ], 
                "resourceType": "Observation", 
                "status": "unknown", 
                "subject": {
                    "reference": "Patient/ehealth-1642068"
                }, 
                "text": {
                    "div": "<div xmlns=\"http://www.w3.org/1999/xhtml\">2006-01-01: Bilirub SerPl-mCnc = 0.5 mg/dL</div>", 
                    "status": "generated"
                }, 
                "valueQuantity": {
                    "code": "mg/dL", 
                    "system": "http://unitsofmeasure.org", 
                    "unit": "mg/dL", 
                    "value": 0.5
                }
            }
        }, 
        {
            "request": {
                "method": "PUT", 
                "url": "Observation/ehealth-1661-lab"
            }, 
            "resource": {
                "category": [
                    {
                        "coding": [
                            {
                                "code": "laboratory", 
                                "display": "Laboratory", 
                                "system": "http://hl7.org/fhir/observation-category"
                            }
                        ], 
                        "text": "Laboratory"
                    }
                ], 
                "code": {
                    "coding": [
                        {
                            "code": "1920-8", 
                            "display": "AST SerPl-cCnc", 
                            "system": "http://loinc.org"
                        }
                    ], 
                    "text": "AST SerPl-cCnc"
                }, 
                "effectiveDateTime": "2006-01-01", 
                "id": "ehealth-1661-lab", 
                "identifier": [
                    {
                        "system": "http://www.bmc.nl/zorgportal/identifiers/observations", 
                        "use": "official", 
                        "value": "ehealth-1661-lab"
                    }
                ], 
                "performer": [
                    {
                        "reference": "Practitioner/ehealth-Practitioner-72004454"
                    }
                ], 
                "referenceRange": [
                    {
                        "high": {
                            "code": "U/L", 
                            "system": "http://unitsofmeasure.org", 
                            "unit": "U/L", 
                            "value": 31.0
                        }, 
                        "low": {
                            "code": "U/L", 
                            "system": "http://unitsofmeasure.org", 
                            "unit": "U/L", 
                            "value": 0.0
                        }, 
                        "type": {
                            "coding": [
                                {
                                    "code": "normal", 
                                    "display": "Normal Range", 
                                    "system": "http://hl7.org/fhir/referencerange-meaning"
                                }
                            ], 
                            "text": "Normal Range"
                        }
                    }
                ], 
                "resourceType": "Observation", 
                "status": "unknown", 
                "subject": {
                    "reference": "Patient/ehealth-1642068"
                }, 
                "text": {
                    "div": "<div xmlns=\"http://www.w3.org/1999/xhtml\">2006-01-01: AST SerPl-cCnc = 25 U/L</div>", 
                    "status": "generated"
                }, 
                "valueQuantity": {
                    "code": "U/L", 
                    "system": "http://unitsofmeasure.org", 
                    "unit": "U/L", 
                    "value": 25.0
                }
            }
        }, 
        {
            "request": {
                "method": "PUT", 
                "url": "Observation/ehealth-1662-lab"
            }, 
            "resource": {
                "category": [
                    {
                        "coding": [
                            {
                                "code": "laboratory", 
                                "display": "Laboratory", 
                                "system": "http://hl7.org/fhir/observation-category"
                            }
                        ], 
                        "text": "Laboratory"
                    }
                ], 
                "code": {
                    "coding": [
                        {
                            "code": "2951-2", 
                            "display": "Sodium SerPl-sCnc", 
                            "system": "http://loinc.org"
                        }
                    ], 
                    "text": "Sodium SerPl-sCnc"
                }, 
                "effectiveDateTime": "2006-01-01", 
                "id": "ehealth-1662-lab", 
                "identifier": [
                    {
                        "system": "http://www.bmc.nl/zorgportal/identifiers/observations", 
                        "use": "official", 
                        "value": "ehealth-1662-lab"
                    }
                ], 
                "performer": [
                    {
                        "reference": "Practitioner/ehealth-Practitioner-72004454"
                    }
                ], 
                "referenceRange": [
                    {
                        "high": {
                            "code": "mmol/L", 
                            "system": "http://unitsofmeasure.org", 
                            "unit": "mmol/L", 
                            "value": 145.0
                        }, 
                        "low": {
                            "code": "mmol/L", 
                            "system": "http://unitsofmeasure.org", 
                            "unit": "mmol/L", 
                            "value": 133.0
                        }, 
                        "type": {
                            "coding": [
                                {
                                    "code": "normal", 
                                    "display": "Normal Range", 
                                    "system": "http://hl7.org/fhir/referencerange-meaning"
                                }
                            ], 
                            "text": "Normal Range"
                        }
                    }
                ], 
                "resourceType": "Observation", 
                "status": "unknown", 
                "subject": {
                    "reference": "Patient/ehealth-1642068"
                }, 
                "text": {
                    "div": "<div xmlns=\"http://www.w3.org/1999/xhtml\">2006-01-01: Sodium SerPl-sCnc = 140 mmol/L</div>", 
                    "status": "generated"
                }, 
                "valueQuantity": {
                    "code": "mmol/L", 
                    "system": "http://unitsofmeasure.org", 
                    "unit": "mmol/L", 
                    "value": 140.0
                }
            }
        }, 
        {
            "request": {
                "method": "PUT", 
                "url": "Observation/ehealth-1663-lab"
            }, 
            "resource": {
                "category": [
                    {
                        "coding": [
                            {
                                "code": "laboratory", 
                                "display": "Laboratory", 
                                "system": "http://hl7.org/fhir/observation-category"
                            }
                        ], 
                        "text": "Laboratory"
                    }
                ], 
                "code": {
                    "coding": [
                        {
                            "code": "2160-0", 
                            "display": "Creat SerPl-mCnc", 
                            "system": "http://loinc.org"
                        }
                    ], 
                    "text": "Creat SerPl-mCnc"
                }, 
                "effectiveDateTime": "2006-01-01", 
                "id": "ehealth-1663-lab", 
                "identifier": [
                    {
                        "system": "http://www.bmc.nl/zorgportal/identifiers/observations", 
                        "use": "official", 
                        "value": "ehealth-1663-lab"
                    }
                ], 
                "performer": [
                    {
                        "reference": "Practitioner/ehealth-Practitioner-72004454"
                    }
                ], 
                "referenceRange": [
                    {
                        "high": {
                            "code": "mg/dL", 
                            "system": "http://unitsofmeasure.org", 
                            "unit": "mg/dL", 
                            "value": 1.3
                        }, 
                        "low": {
                            "code": "mg/dL", 
                            "system": "http://unitsofmeasure.org", 
                            "unit": "mg/dL", 
                            "value": 0.6
                        }, 
                        "type": {
                            "coding": [
                                {
                                    "code": "normal", 
                                    "display": "Normal Range", 
                                    "system": "http://hl7.org/fhir/referencerange-meaning"
                                }
                            ], 
                            "text": "Normal Range"
                        }
                    }
                ], 
                "resourceType": "Observation", 
                "status": "unknown", 
                "subject": {
                    "reference": "Patient/ehealth-1642068"
                }, 
                "text": {
                    "div": "<div xmlns=\"http://www.w3.org/1999/xhtml\">2006-01-01: Creat SerPl-mCnc = 0.9 mg/dL</div>", 
                    "status": "generated"
                }, 
                "valueQuantity": {
                    "code": "mg/dL", 
                    "system": "http://unitsofmeasure.org", 
                    "unit": "mg/dL", 
                    "value": 0.9
                }
            }
        }, 
        {
            "request": {
                "method": "PUT", 
                "url": "Observation/ehealth-1664-lab"
            }, 
            "resource": {
                "category": [
                    {
                        "coding": [
                            {
                                "code": "laboratory", 
                                "display": "Laboratory", 
                                "system": "http://hl7.org/fhir/observation-category"
                            }
                        ], 
                        "text": "Laboratory"
                    }
                ], 
                "code": {
                    "coding": [
                        {
                            "code": "1742-6", 
                            "display": "ALT SerPl-cCnc", 
                            "system": "http://loinc.org"
                        }
                    ], 
                    "text": "ALT SerPl-cCnc"
                }, 
                "effectiveDateTime": "2006-01-01", 
                "id": "ehealth-1664-lab", 
                "identifier": [
                    {
                        "system": "http://www.bmc.nl/zorgportal/identifiers/observations", 
                        "use": "official", 
                        "value": "ehealth-1664-lab"
                    }
                ], 
                "performer": [
                    {
                        "reference": "Practitioner/ehealth-Practitioner-72004454"
                    }
                ], 
                "referenceRange": [
                    {
                        "high": {
                            "code": "U/L", 
                            "system": "http://unitsofmeasure.org", 
                            "unit": "U/L", 
                            "value": 31.0
                        }, 
                        "low": {
                            "code": "U/L", 
                            "system": "http://unitsofmeasure.org", 
                            "unit": "U/L", 
                            "value": 0.0
                        }, 
                        "type": {
                            "coding": [
                                {
                                    "code": "normal", 
                                    "display": "Normal Range", 
                                    "system": "http://hl7.org/fhir/referencerange-meaning"
                                }
                            ], 
                            "text": "Normal Range"
                        }
                    }
                ], 
                "resourceType": "Observation", 
                "status": "unknown", 
                "subject": {
                    "reference": "Patient/ehealth-1642068"
                }, 
                "text": {
                    "div": "<div xmlns=\"http://www.w3.org/1999/xhtml\">2006-01-01: ALT SerPl-cCnc = 27 U/L</div>", 
                    "status": "generated"
                }, 
                "valueQuantity": {
                    "code": "U/L", 
                    "system": "http://unitsofmeasure.org", 
                    "unit": "U/L", 
                    "value": 27.0
                }
            }
        }, 
        {
            "request": {
                "method": "PUT", 
                "url": "Observation/ehealth-1665-lab"
            }, 
            "resource": {
                "category": [
                    {
                        "coding": [
                            {
                                "code": "laboratory", 
                                "display": "Laboratory", 
                                "system": "http://hl7.org/fhir/observation-category"
                            }
                        ], 
                        "text": "Laboratory"
                    }
                ], 
                "code": {
                    "coding": [
                        {
                            "code": "1648-5", 
                            "display": "TB Wheal 3D p 5 TU Diam", 
                            "system": "http://loinc.org"
                        }
                    ], 
                    "text": "TB Wheal 3D p 5 TU Diam"
                }, 
                "effectiveDateTime": "2006-01-01", 
                "id": "ehealth-1665-lab", 
                "identifier": [
                    {
                        "system": "http://www.bmc.nl/zorgportal/identifiers/observations", 
                        "use": "official", 
                        "value": "ehealth-1665-lab"
                    }
                ], 
                "performer": [
                    {
                        "reference": "Practitioner/ehealth-Practitioner-72004454"
                    }
                ], 
                "referenceRange": [
                    {
                        "high": {
                            "code": "mm", 
                            "system": "http://unitsofmeasure.org", 
                            "unit": "mm", 
                            "value": 1.0
                        }, 
                        "low": {
                            "code": "mm", 
                            "system": "http://unitsofmeasure.org", 
                            "unit": "mm", 
                            "value": 0.0
                        }, 
                        "type": {
                            "coding": [
                                {
                                    "code": "normal", 
                                    "display": "Normal Range", 
                                    "system": "http://hl7.org/fhir/referencerange-meaning"
                                }
                            ], 
                            "text": "Normal Range"
                        }
                    }
                ], 
                "resourceType": "Observation", 
                "status": "unknown", 
                "subject": {
                    "reference": "Patient/ehealth-1642068"
                }, 
                "text": {
                    "div": "<div xmlns=\"http://www.w3.org/1999/xhtml\">2006-01-01: TB Wheal 3D p 5 TU Diam = 0.6 mm</div>", 
                    "status": "generated"
                }, 
                "valueQuantity": {
                    "code": "mm", 
                    "system": "http://unitsofmeasure.org", 
                    "unit": "mm", 
                    "value": 0.6
                }
            }
        }, 
        {
            "request": {
                "method": "PUT", 
                "url": "Observation/ehealth-1666-lab"
            }, 
            "resource": {
                "category": [
                    {
                        "coding": [
                            {
                                "code": "laboratory", 
                                "display": "Laboratory", 
                                "system": "http://hl7.org/fhir/observation-category"
                            }
                        ], 
                        "text": "Laboratory"
                    }
                ], 
                "code": {
                    "coding": [
                        {
                            "code": "26515-7", 
                            "display": "Platelet # Bld", 
                            "system": "http://loinc.org"
                        }
                    ], 
                    "text": "Platelet # Bld"
                }, 
                "effectiveDateTime": "2006-01-01", 
                "id": "ehealth-1666-lab", 
                "identifier": [
                    {
                        "system": "http://www.bmc.nl/zorgportal/identifiers/observations", 
                        "use": "official", 
                        "value": "ehealth-1666-lab"
                    }
                ], 
                "performer": [
                    {
                        "reference": "Practitioner/ehealth-Practitioner-72004454"
                    }
                ], 
                "referenceRange": [
                    {
                        "high": {
                            "code": "10*3/uL", 
                            "system": "http://unitsofmeasure.org", 
                            "unit": "10*3/uL", 
                            "value": 450.0
                        }, 
                        "low": {
                            "code": "10*3/uL", 
                            "system": "http://unitsofmeasure.org", 
                            "unit": "10*3/uL", 
                            "value": 150.0
                        }, 
                        "type": {
                            "coding": [
                                {
                                    "code": "normal", 
                                    "display": "Normal Range", 
                                    "system": "http://hl7.org/fhir/referencerange-meaning"
                                }
                            ], 
                            "text": "Normal Range"
                        }
                    }
                ], 
                "resourceType": "Observation", 
                "status": "unknown", 
                "subject": {
                    "reference": "Patient/ehealth-1642068"
                }, 
                "text": {
                    "div": "<div xmlns=\"http://www.w3.org/1999/xhtml\">2006-01-01: Platelet # Bld = 313 10*3/uL</div>", 
                    "status": "generated"
                }, 
                "valueQuantity": {
                    "code": "10*3/uL", 
                    "system": "http://unitsofmeasure.org", 
                    "unit": "10*3/uL", 
                    "value": 313.0
                }
            }
        }, 
        {
            "request": {
                "method": "PUT", 
                "url": "Observation/ehealth-1667-lab"
            }, 
            "resource": {
                "category": [
                    {
                        "coding": [
                            {
                                "code": "laboratory", 
                                "display": "Laboratory", 
                                "system": "http://hl7.org/fhir/observation-category"
                            }
                        ], 
                        "text": "Laboratory"
                    }
                ], 
                "code": {
                    "coding": [
                        {
                            "code": "30428-7", 
                            "display": "MCV RBC", 
                            "system": "http://loinc.org"
                        }
                    ], 
                    "text": "MCV RBC"
                }, 
                "effectiveDateTime": "2006-01-01", 
                "id": "ehealth-1667-lab", 
                "identifier": [
                    {
                        "system": "http://www.bmc.nl/zorgportal/identifiers/observations", 
                        "use": "official", 
                        "value": "ehealth-1667-lab"
                    }
                ], 
                "performer": [
                    {
                        "reference": "Practitioner/ehealth-Practitioner-72004454"
                    }
                ], 
                "referenceRange": [
                    {
                        "high": {
                            "code": "fL", 
                            "system": "http://unitsofmeasure.org", 
                            "unit": "fL", 
                            "value": 100.0
                        }, 
                        "low": {
                            "code": "fL", 
                            "system": "http://unitsofmeasure.org", 
                            "unit": "fL", 
                            "value": 78.0
                        }, 
                        "type": {
                            "coding": [
                                {
                                    "code": "normal", 
                                    "display": "Normal Range", 
                                    "system": "http://hl7.org/fhir/referencerange-meaning"
                                }
                            ], 
                            "text": "Normal Range"
                        }
                    }
                ], 
                "resourceType": "Observation", 
                "status": "unknown", 
                "subject": {
                    "reference": "Patient/ehealth-1642068"
                }, 
                "text": {
                    "div": "<div xmlns=\"http://www.w3.org/1999/xhtml\">2006-01-01: MCV RBC = 91.6 fL</div>", 
                    "status": "generated"
                }, 
                "valueQuantity": {
                    "code": "fL", 
                    "system": "http://unitsofmeasure.org", 
                    "unit": "fL", 
                    "value": 91.6
                }
            }
        }, 
        {
            "request": {
                "method": "PUT", 
                "url": "Observation/ehealth-1668-lab"
            }, 
            "resource": {
                "category": [
                    {
                        "coding": [
                            {
                                "code": "laboratory", 
                                "display": "Laboratory", 
                                "system": "http://hl7.org/fhir/observation-category"
                            }
                        ], 
                        "text": "Laboratory"
                    }
                ], 
                "code": {
                    "coding": [
                        {
                            "code": "785-6", 
                            "display": "MCH RBC Qn Auto", 
                            "system": "http://loinc.org"
                        }
                    ], 
                    "text": "MCH RBC Qn Auto"
                }, 
                "effectiveDateTime": "2006-01-01", 
                "id": "ehealth-1668-lab", 
                "identifier": [
                    {
                        "system": "http://www.bmc.nl/zorgportal/identifiers/observations", 
                        "use": "official", 
                        "value": "ehealth-1668-lab"
                    }
                ], 
                "performer": [
                    {
                        "reference": "Practitioner/ehealth-Practitioner-72004454"
                    }
                ], 
                "referenceRange": [
                    {
                        "high": {
                            "code": "pg", 
                            "system": "http://unitsofmeasure.org", 
                            "unit": "pg", 
                            "value": 31.0
                        }, 
                        "low": {
                            "code": "pg", 
                            "system": "http://unitsofmeasure.org", 
                            "unit": "pg", 
                            "value": 27.0
                        }, 
                        "type": {
                            "coding": [
                                {
                                    "code": "normal", 
                                    "display": "Normal Range", 
                                    "system": "http://hl7.org/fhir/referencerange-meaning"
                                }
                            ], 
                            "text": "Normal Range"
                        }
                    }
                ], 
                "resourceType": "Observation", 
                "status": "unknown", 
                "subject": {
                    "reference": "Patient/ehealth-1642068"
                }, 
                "text": {
                    "div": "<div xmlns=\"http://www.w3.org/1999/xhtml\">2006-01-01: MCH RBC Qn Auto = 31.2 pg</div>", 
                    "status": "generated"
                }, 
                "valueQuantity": {
                    "code": "pg", 
                    "system": "http://unitsofmeasure.org", 
                    "unit": "pg", 
                    "value": 31.2
                }
            }
        }, 
        {
            "request": {
                "method": "PUT", 
                "url": "Observation/ehealth-1669-lab"
            }, 
            "resource": {
                "category": [
                    {
                        "coding": [
                            {
                                "code": "laboratory", 
                                "display": "Laboratory", 
                                "system": "http://hl7.org/fhir/observation-category"
                            }
                        ], 
                        "text": "Laboratory"
                    }
                ], 
                "code": {
                    "coding": [
                        {
                            "code": "17861-6", 
                            "display": "Calcium SerPl-mCnc", 
                            "system": "http://loinc.org"
                        }
                    ], 
                    "text": "Calcium SerPl-mCnc"
                }, 
                "effectiveDateTime": "2006-01-01", 
                "id": "ehealth-1669-lab", 
                "identifier": [
                    {
                        "system": "http://www.bmc.nl/zorgportal/identifiers/observations", 
                        "use": "official", 
                        "value": "ehealth-1669-lab"
                    }
                ], 
                "performer": [
                    {
                        "reference": "Practitioner/ehealth-Practitioner-72004454"
                    }
                ], 
                "referenceRange": [
                    {
                        "high": {
                            "code": "mg/dL", 
                            "system": "http://unitsofmeasure.org", 
                            "unit": "mg/dL", 
                            "value": 10.4
                        }, 
                        "low": {
                            "code": "mg/dL", 
                            "system": "http://unitsofmeasure.org", 
                            "unit": "mg/dL", 
                            "value": 8.4
                        }, 
                        "type": {
                            "coding": [
                                {
                                    "code": "normal", 
                                    "display": "Normal Range", 
                                    "system": "http://hl7.org/fhir/referencerange-meaning"
                                }
                            ], 
                            "text": "Normal Range"
                        }
                    }
                ], 
                "resourceType": "Observation", 
                "status": "unknown", 
                "subject": {
                    "reference": "Patient/ehealth-1642068"
                }, 
                "text": {
                    "div": "<div xmlns=\"http://www.w3.org/1999/xhtml\">2006-01-01: Calcium SerPl-mCnc = 9.9 mg/dL</div>", 
                    "status": "generated"
                }, 
                "valueQuantity": {
                    "code": "mg/dL", 
                    "system": "http://unitsofmeasure.org", 
                    "unit": "mg/dL", 
                    "value": 9.9
                }
            }
        }, 
        {
            "request": {
                "method": "PUT", 
                "url": "Observation/ehealth-1670-lab"
            }, 
            "resource": {
                "category": [
                    {
                        "coding": [
                            {
                                "code": "laboratory", 
                                "display": "Laboratory", 
                                "system": "http://hl7.org/fhir/observation-category"
                            }
                        ], 
                        "text": "Laboratory"
                    }
                ], 
                "code": {
                    "coding": [
                        {
                            "code": "26478-8", 
                            "display": "Lymphocytes NFr Bld", 
                            "system": "http://loinc.org"
                        }
                    ], 
                    "text": "Lymphocytes NFr Bld"
                }, 
                "effectiveDateTime": "2006-01-01", 
                "id": "ehealth-1670-lab", 
                "identifier": [
                    {
                        "system": "http://www.bmc.nl/zorgportal/identifiers/observations", 
                        "use": "official", 
                        "value": "ehealth-1670-lab"
                    }
                ], 
                "performer": [
                    {
                        "reference": "Practitioner/ehealth-Practitioner-72004454"
                    }
                ], 
                "referenceRange": [
                    {
                        "high": {
                            "code": "%", 
                            "system": "http://unitsofmeasure.org", 
                            "unit": "%", 
                            "value": 50.0
                        }, 
                        "low": {
                            "code": "%", 
                            "system": "http://unitsofmeasure.org", 
                            "unit": "%", 
                            "value": 20.0
                        }, 
                        "type": {
                            "coding": [
                                {
                                    "code": "normal", 
                                    "display": "Normal Range", 
                                    "system": "http://hl7.org/fhir/referencerange-meaning"
                                }
                            ], 
                            "text": "Normal Range"
                        }
                    }
                ], 
                "resourceType": "Observation", 
                "status": "unknown", 
                "subject": {
                    "reference": "Patient/ehealth-1642068"
                }, 
                "text": {
                    "div": "<div xmlns=\"http://www.w3.org/1999/xhtml\">2006-01-01: Lymphocytes NFr Bld = 26 %</div>", 
                    "status": "generated"
                }, 
                "valueQuantity": {
                    "code": "%", 
                    "system": "http://unitsofmeasure.org", 
                    "unit": "%", 
                    "value": 26.0
                }
            }
        }, 
        {
            "request": {
                "method": "PUT", 
                "url": "MedicationRequest/ehealth-MedicationRequest-179"
            }, 
            "resource": {
                "dispenseRequest": {
                    "expectedSupplyDuration": {
                        "code": "d", 
                        "system": "http://unitsofmeasure.org", 
                        "unit": "days", 
                        "value": 90
                    }, 
                    "numberOfRepeatsAllowed": 1, 
                    "quantity": {
                        "code": "{tablet}", 
                        "system": "http://unitsofmeasure.org", 
                        "unit": "{tablet}", 
                        "value": 90.0
                    }
                }, 
                "dosageInstruction": [
                    {
                        "doseQuantity": {
                            "code": "{tablet}", 
                            "system": "http://unitsofmeasure.org", 
                            "unit": "{tablet}", 
                            "value": 1.0
                        }, 
                        "text": "1 daily", 
                        "timing": {
                            "repeat": {
                                "boundsPeriod": {
                                    "start": "2008-08-07"
                                }, 
                                "frequency": 1, 
                                "period": 1, 
                                "periodUnit": "d"
                            }
                        }
                    }
                ], 
                "id": "ehealth-MedicationRequest-179", 
                "intent": "order", 
                "medicationCodeableConcept": {
                    "coding": [
                        {
                            "code": "206485", 
                            "display": "Thyroxine 0.112 MG Oral Tablet [Levoxyl]", 
                            "system": "http://www.nlm.nih.gov/research/umls/rxnorm"
                        }
                    ], 
                    "text": "Thyroxine 0.112 MG Oral Tablet [Levoxyl]"
                }, 
                "resourceType": "MedicationRequest", 
                "status": "active", 
                "subject": {
                    "reference": "Patient/ehealth-1642068"
                }, 
                "text": {
                    "div": "<div xmlns=\"http://www.w3.org/1999/xhtml\">Thyroxine 0.112 MG Oral Tablet [Levoxyl] (rxnorm: 206485)</div>", 
                    "status": "generated"
                }
            }
        }, 
        {
            "request": {
                "method": "PUT", 
                "url": "MedicationDispense/ehealth-MedicationDispense-60"
            }, 
            "resource": {
                "authorizingPrescription": [
                    {
                        "reference": "MedicationRequest/ehealth-MedicationRequest-179"
                    }
                ], 
                "daysSupply": {
                    "code": "d", 
                    "system": "http://unitsofmeasure.org", 
                    "unit": "days", 
                    "value": 90
                }, 
                "id": "ehealth-MedicationDispense-60", 
                "medicationCodeableConcept": {
                    "coding": [
                        {
                            "code": "206485", 
                            "display": "Thyroxine 0.112 MG Oral Tablet [Levoxyl]", 
                            "system": "http://www.nlm.nih.gov/research/umls/rxnorm"
                        }
                    ], 
                    "text": "Thyroxine 0.112 MG Oral Tablet [Levoxyl]"
                }, 
                "quantity": {
                    "code": "{tablets}", 
                    "system": "http://unitsofmeasure.org", 
                    "unit": "tablets", 
                    "value": 90.0
                }, 
                "resourceType": "MedicationDispense", 
                "status": "completed", 
                "subject": {
                    "reference": "Patient/ehealth-1642068"
                }, 
                "text": {
                    "div": "<div xmlns=\"http://www.w3.org/1999/xhtml\">Dispensed 90 tablets = 90 day supply of Thyroxine 0.112 MG Oral Tablet [Levoxyl]</div>", 
                    "status": "generated"
                }, 
                "whenHandedOver": "2009-05-02"
            }
        }, 
        {
            "request": {
                "method": "PUT", 
                "url": "MedicationDispense/ehealth-MedicationDispense-57"
            }, 
            "resource": {
                "authorizingPrescription": [
                    {
                        "reference": "MedicationRequest/ehealth-MedicationRequest-179"
                    }
                ], 
                "daysSupply": {
                    "code": "d", 
                    "system": "http://unitsofmeasure.org", 
                    "unit": "days", 
                    "value": 90
                }, 
                "id": "ehealth-MedicationDispense-57", 
                "medicationCodeableConcept": {
                    "coding": [
                        {
                            "code": "206485", 
                            "display": "Thyroxine 0.112 MG Oral Tablet [Levoxyl]", 
                            "system": "http://www.nlm.nih.gov/research/umls/rxnorm"
                        }
                    ], 
                    "text": "Thyroxine 0.112 MG Oral Tablet [Levoxyl]"
                }, 
                "quantity": {
                    "code": "{tablets}", 
                    "system": "http://unitsofmeasure.org", 
                    "unit": "tablets", 
                    "value": 90.0
                }, 
                "resourceType": "MedicationDispense", 
                "status": "completed", 
                "subject": {
                    "reference": "Patient/ehealth-1642068"
                }, 
                "text": {
                    "div": "<div xmlns=\"http://www.w3.org/1999/xhtml\">Dispensed 90 tablets = 90 day supply of Thyroxine 0.112 MG Oral Tablet [Levoxyl]</div>", 
                    "status": "generated"
                }, 
                "whenHandedOver": "2008-08-07"
            }
        }, 
        {
            "request": {
                "method": "PUT", 
                "url": "MedicationDispense/ehealth-MedicationDispense-59"
            }, 
            "resource": {
                "authorizingPrescription": [
                    {
                        "reference": "MedicationRequest/ehealth-MedicationRequest-179"
                    }
                ], 
                "daysSupply": {
                    "code": "d", 
                    "system": "http://unitsofmeasure.org", 
                    "unit": "days", 
                    "value": 90
                }, 
                "id": "ehealth-MedicationDispense-59", 
                "medicationCodeableConcept": {
                    "coding": [
                        {
                            "code": "206485", 
                            "display": "Thyroxine 0.112 MG Oral Tablet [Levoxyl]", 
                            "system": "http://www.nlm.nih.gov/research/umls/rxnorm"
                        }
                    ], 
                    "text": "Thyroxine 0.112 MG Oral Tablet [Levoxyl]"
                }, 
                "quantity": {
                    "code": "{tablets}", 
                    "system": "http://unitsofmeasure.org", 
                    "unit": "tablets", 
                    "value": 90.0
                }, 
                "resourceType": "MedicationDispense", 
                "status": "completed", 
                "subject": {
                    "reference": "Patient/ehealth-1642068"
                }, 
                "text": {
                    "div": "<div xmlns=\"http://www.w3.org/1999/xhtml\">Dispensed 90 tablets = 90 day supply of Thyroxine 0.112 MG Oral Tablet [Levoxyl]</div>", 
                    "status": "generated"
                }, 
                "whenHandedOver": "2009-01-29"
            }
        }, 
        {
            "request": {
                "method": "PUT", 
                "url": "MedicationDispense/ehealth-MedicationDispense-58"
            }, 
            "resource": {
                "authorizingPrescription": [
                    {
                        "reference": "MedicationRequest/ehealth-MedicationRequest-179"
                    }
                ], 
                "daysSupply": {
                    "code": "d", 
                    "system": "http://unitsofmeasure.org", 
                    "unit": "days", 
                    "value": 90
                }, 
                "id": "ehealth-MedicationDispense-58", 
                "medicationCodeableConcept": {
                    "coding": [
                        {
                            "code": "206485", 
                            "display": "Thyroxine 0.112 MG Oral Tablet [Levoxyl]", 
                            "system": "http://www.nlm.nih.gov/research/umls/rxnorm"
                        }
                    ], 
                    "text": "Thyroxine 0.112 MG Oral Tablet [Levoxyl]"
                }, 
                "quantity": {
                    "code": "{tablets}", 
                    "system": "http://unitsofmeasure.org", 
                    "unit": "tablets", 
                    "value": 90.0
                }, 
                "resourceType": "MedicationDispense", 
                "status": "completed", 
                "subject": {
                    "reference": "Patient/ehealth-1642068"
                }, 
                "text": {
                    "div": "<div xmlns=\"http://www.w3.org/1999/xhtml\">Dispensed 90 tablets = 90 day supply of Thyroxine 0.112 MG Oral Tablet [Levoxyl]</div>", 
                    "status": "generated"
                }, 
                "whenHandedOver": "2008-11-06"
            }
        }, 
        {
            "request": {
                "method": "PUT", 
                "url": "MedicationDispense/ehealth-MedicationDispense-61"
            }, 
            "resource": {
                "authorizingPrescription": [
                    {
                        "reference": "MedicationRequest/ehealth-MedicationRequest-179"
                    }
                ], 
                "daysSupply": {
                    "code": "d", 
                    "system": "http://unitsofmeasure.org", 
                    "unit": "days", 
                    "value": 90
                }, 
                "id": "ehealth-MedicationDispense-61", 
                "medicationCodeableConcept": {
                    "coding": [
                        {
                            "code": "206485", 
                            "display": "Thyroxine 0.112 MG Oral Tablet [Levoxyl]", 
                            "system": "http://www.nlm.nih.gov/research/umls/rxnorm"
                        }
                    ], 
                    "text": "Thyroxine 0.112 MG Oral Tablet [Levoxyl]"
                }, 
                "quantity": {
                    "code": "{tablets}", 
                    "system": "http://unitsofmeasure.org", 
                    "unit": "tablets", 
                    "value": 90.0
                }, 
                "resourceType": "MedicationDispense", 
                "status": "completed", 
                "subject": {
                    "reference": "Patient/ehealth-1642068"
                }, 
                "text": {
                    "div": "<div xmlns=\"http://www.w3.org/1999/xhtml\">Dispensed 90 tablets = 90 day supply of Thyroxine 0.112 MG Oral Tablet [Levoxyl]</div>", 
                    "status": "generated"
                }, 
                "whenHandedOver": "2009-07-16"
            }
        }, 
        {
            "request": {
                "method": "PUT", 
                "url": "MedicationRequest/ehealth-MedicationRequest-180"
            }, 
            "resource": {
                "dispenseRequest": {
                    "expectedSupplyDuration": {
                        "code": "d", 
                        "system": "http://unitsofmeasure.org", 
                        "unit": "days", 
                        "value": 90
                    }, 
                    "numberOfRepeatsAllowed": 1, 
                    "quantity": {
                        "code": "{tablet}", 
                        "system": "http://unitsofmeasure.org", 
                        "unit": "{tablet}", 
                        "value": 90.0
                    }
                }, 
                "dosageInstruction": [
                    {
                        "doseQuantity": {
                            "code": "{tablet}", 
                            "system": "http://unitsofmeasure.org", 
                            "unit": "{tablet}", 
                            "value": 1.0
                        }, 
                        "text": "1 daily", 
                        "timing": {
                            "repeat": {
                                "boundsPeriod": {
                                    "start": "2008-08-29"
                                }, 
                                "frequency": 1, 
                                "period": 1, 
                                "periodUnit": "d"
                            }
                        }
                    }
                ], 
                "id": "ehealth-MedicationRequest-180", 
                "intent": "order", 
                "medicationCodeableConcept": {
                    "coding": [
                        {
                            "code": "823934", 
                            "display": "Hydrochlorothiazide 12.5 MG / irbesartan 150 MG Oral Tablet [Avalide 150/12.5]", 
                            "system": "http://www.nlm.nih.gov/research/umls/rxnorm"
                        }
                    ], 
                    "text": "Hydrochlorothiazide 12.5 MG / irbesartan 150 MG Oral Tablet [Avalide 150/12.5]"
                }, 
                "resourceType": "MedicationRequest", 
                "status": "active", 
                "subject": {
                    "reference": "Patient/ehealth-1642068"
                }, 
                "text": {
                    "div": "<div xmlns=\"http://www.w3.org/1999/xhtml\">Hydrochlorothiazide 12.5 MG / irbesartan 150 MG Oral Tablet [Avalide 150/12.5] (rxnorm: 823934)</div>", 
                    "status": "generated"
                }
            }
        }, 
        {
            "request": {
                "method": "PUT", 
                "url": "MedicationDispense/ehealth-MedicationDispense-80"
            }, 
            "resource": {
                "authorizingPrescription": [
                    {
                        "reference": "MedicationRequest/ehealth-MedicationRequest-180"
                    }
                ], 
                "daysSupply": {
                    "code": "d", 
                    "system": "http://unitsofmeasure.org", 
                    "unit": "days", 
                    "value": 90
                }, 
                "id": "ehealth-MedicationDispense-80", 
                "medicationCodeableConcept": {
                    "coding": [
                        {
                            "code": "823934", 
                            "display": "Hydrochlorothiazide 12.5 MG / irbesartan 150 MG Oral Tablet [Avalide 150/12.5]", 
                            "system": "http://www.nlm.nih.gov/research/umls/rxnorm"
                        }
                    ], 
                    "text": "Hydrochlorothiazide 12.5 MG / irbesartan 150 MG Oral Tablet [Avalide 150/12.5]"
                }, 
                "quantity": {
                    "code": "{tablets}", 
                    "system": "http://unitsofmeasure.org", 
                    "unit": "tablets", 
                    "value": 90.0
                }, 
                "resourceType": "MedicationDispense", 
                "status": "completed", 
                "subject": {
                    "reference": "Patient/ehealth-1642068"
                }, 
                "text": {
                    "div": "<div xmlns=\"http://www.w3.org/1999/xhtml\">Dispensed 90 tablets = 90 day supply of Hydrochlorothiazide 12.5 MG / irbesartan 150 MG Oral Tablet [Avalide 150/12.5]</div>", 
                    "status": "generated"
                }, 
                "whenHandedOver": "2008-08-29"
            }
        }, 
        {
            "request": {
                "method": "PUT", 
                "url": "MedicationRequest/ehealth-MedicationRequest-181"
            }, 
            "resource": {
                "dispenseRequest": {
                    "expectedSupplyDuration": {
                        "code": "d", 
                        "system": "http://unitsofmeasure.org", 
                        "unit": "days", 
                        "value": 90
                    }, 
                    "numberOfRepeatsAllowed": 1, 
                    "quantity": {
                        "code": "{tablet}", 
                        "system": "http://unitsofmeasure.org", 
                        "unit": "{tablet}", 
                        "value": 90.0
                    }
                }, 
                "dosageInstruction": [
                    {
                        "doseQuantity": {
                            "code": "{tablet}", 
                            "system": "http://unitsofmeasure.org", 
                            "unit": "{tablet}", 
                            "value": 1.0
                        }, 
                        "text": "1 daily", 
                        "timing": {
                            "repeat": {
                                "boundsPeriod": {
                                    "start": "2008-09-21"
                                }, 
                                "frequency": 1, 
                                "period": 1, 
                                "periodUnit": "d"
                            }
                        }
                    }
                ], 
                "id": "ehealth-MedicationRequest-181", 
                "intent": "order", 
                "medicationCodeableConcept": {
                    "coding": [
                        {
                            "code": "314200", 
                            "display": "pantoprazole 40 MG Enteric Coated Tablet", 
                            "system": "http://www.nlm.nih.gov/research/umls/rxnorm"
                        }
                    ], 
                    "text": "pantoprazole 40 MG Enteric Coated Tablet"
                }, 
                "resourceType": "MedicationRequest", 
                "status": "active", 
                "subject": {
                    "reference": "Patient/ehealth-1642068"
                }, 
                "text": {
                    "div": "<div xmlns=\"http://www.w3.org/1999/xhtml\">pantoprazole 40 MG Enteric Coated Tablet (rxnorm: 314200)</div>", 
                    "status": "generated"
                }
            }
        }, 
        {
            "request": {
                "method": "PUT", 
                "url": "MedicationDispense/ehealth-MedicationDispense-52"
            }, 
            "resource": {
                "authorizingPrescription": [
                    {
                        "reference": "MedicationRequest/ehealth-MedicationRequest-181"
                    }
                ], 
                "daysSupply": {
                    "code": "d", 
                    "system": "http://unitsofmeasure.org", 
                    "unit": "days", 
                    "value": 90
                }, 
                "id": "ehealth-MedicationDispense-52", 
                "medicationCodeableConcept": {
                    "coding": [
                        {
                            "code": "314200", 
                            "display": "pantoprazole 40 MG Enteric Coated Tablet", 
                            "system": "http://www.nlm.nih.gov/research/umls/rxnorm"
                        }
                    ], 
                    "text": "pantoprazole 40 MG Enteric Coated Tablet"
                }, 
                "quantity": {
                    "code": "{tablets}", 
                    "system": "http://unitsofmeasure.org", 
                    "unit": "tablets", 
                    "value": 90.0
                }, 
                "resourceType": "MedicationDispense", 
                "status": "completed", 
                "subject": {
                    "reference": "Patient/ehealth-1642068"
                }, 
                "text": {
                    "div": "<div xmlns=\"http://www.w3.org/1999/xhtml\">Dispensed 90 tablets = 90 day supply of pantoprazole 40 MG Enteric Coated Tablet</div>", 
                    "status": "generated"
                }, 
                "whenHandedOver": "2008-09-21"
            }
        }, 
        {
            "request": {
                "method": "PUT", 
                "url": "MedicationDispense/ehealth-MedicationDispense-53"
            }, 
            "resource": {
                "authorizingPrescription": [
                    {
                        "reference": "MedicationRequest/ehealth-MedicationRequest-181"
                    }
                ], 
                "daysSupply": {
                    "code": "d", 
                    "system": "http://unitsofmeasure.org", 
                    "unit": "days", 
                    "value": 90
                }, 
                "id": "ehealth-MedicationDispense-53", 
                "medicationCodeableConcept": {
                    "coding": [
                        {
                            "code": "314200", 
                            "display": "pantoprazole 40 MG Enteric Coated Tablet", 
                            "system": "http://www.nlm.nih.gov/research/umls/rxnorm"
                        }
                    ], 
                    "text": "pantoprazole 40 MG Enteric Coated Tablet"
                }, 
                "quantity": {
                    "code": "{tablets}", 
                    "system": "http://unitsofmeasure.org", 
                    "unit": "tablets", 
                    "value": 90.0
                }, 
                "resourceType": "MedicationDispense", 
                "status": "completed", 
                "subject": {
                    "reference": "Patient/ehealth-1642068"
                }, 
                "text": {
                    "div": "<div xmlns=\"http://www.w3.org/1999/xhtml\">Dispensed 90 tablets = 90 day supply of pantoprazole 40 MG Enteric Coated Tablet</div>", 
                    "status": "generated"
                }, 
                "whenHandedOver": "2008-12-20"
            }
        }, 
        {
            "request": {
                "method": "PUT", 
                "url": "MedicationRequest/ehealth-MedicationRequest-182"
            }, 
            "resource": {
                "dispenseRequest": {
                    "expectedSupplyDuration": {
                        "code": "d", 
                        "system": "http://unitsofmeasure.org", 
                        "unit": "days", 
                        "value": 90
                    }, 
                    "numberOfRepeatsAllowed": 1, 
                    "quantity": {
                        "code": "{tablet}", 
                        "system": "http://unitsofmeasure.org", 
                        "unit": "{tablet}", 
                        "value": 90.0
                    }
                }, 
                "dosageInstruction": [
                    {
                        "doseQuantity": {
                            "code": "{tablet}", 
                            "system": "http://unitsofmeasure.org", 
                            "unit": "{tablet}", 
                            "value": 1.0
                        }, 
                        "text": "1 bid", 
                        "timing": {
                            "repeat": {
                                "boundsPeriod": {
                                    "start": "2008-09-25"
                                }, 
                                "frequency": 2, 
                                "period": 1, 
                                "periodUnit": "d"
                            }
                        }
                    }
                ], 
                "id": "ehealth-MedicationRequest-182", 
                "intent": "order", 
                "medicationCodeableConcept": {
                    "coding": [
                        {
                            "code": "198191", 
                            "display": "Ranitidine 150 MG Oral Tablet", 
                            "system": "http://www.nlm.nih.gov/research/umls/rxnorm"
                        }
                    ], 
                    "text": "Ranitidine 150 MG Oral Tablet"
                }, 
                "resourceType": "MedicationRequest", 
                "status": "active", 
                "subject": {
                    "reference": "Patient/ehealth-1642068"
                }, 
                "text": {
                    "div": "<div xmlns=\"http://www.w3.org/1999/xhtml\">Ranitidine 150 MG Oral Tablet (rxnorm: 198191)</div>", 
                    "status": "generated"
                }
            }
        }, 
        {
            "request": {
                "method": "PUT", 
                "url": "MedicationDispense/ehealth-MedicationDispense-62"
            }, 
            "resource": {
                "authorizingPrescription": [
                    {
                        "reference": "MedicationRequest/ehealth-MedicationRequest-182"
                    }
                ], 
                "daysSupply": {
                    "code": "d", 
                    "system": "http://unitsofmeasure.org", 
                    "unit": "days", 
                    "value": 90
                }, 
                "id": "ehealth-MedicationDispense-62", 
                "medicationCodeableConcept": {
                    "coding": [
                        {
                            "code": "198191", 
                            "display": "Ranitidine 150 MG Oral Tablet", 
                            "system": "http://www.nlm.nih.gov/research/umls/rxnorm"
                        }
                    ], 
                    "text": "Ranitidine 150 MG Oral Tablet"
                }, 
                "quantity": {
                    "code": "{tablets}", 
                    "system": "http://unitsofmeasure.org", 
                    "unit": "tablets", 
                    "value": 90.0
                }, 
                "resourceType": "MedicationDispense", 
                "status": "completed", 
                "subject": {
                    "reference": "Patient/ehealth-1642068"
                }, 
                "text": {
                    "div": "<div xmlns=\"http://www.w3.org/1999/xhtml\">Dispensed 90 tablets = 90 day supply of Ranitidine 150 MG Oral Tablet</div>", 
                    "status": "generated"
                }, 
                "whenHandedOver": "2008-09-25"
            }
        }, 
        {
            "request": {
                "method": "PUT", 
                "url": "MedicationDispense/ehealth-MedicationDispense-64"
            }, 
            "resource": {
                "authorizingPrescription": [
                    {
                        "reference": "MedicationRequest/ehealth-MedicationRequest-182"
                    }
                ], 
                "daysSupply": {
                    "code": "d", 
                    "system": "http://unitsofmeasure.org", 
                    "unit": "days", 
                    "value": 90
                }, 
                "id": "ehealth-MedicationDispense-64", 
                "medicationCodeableConcept": {
                    "coding": [
                        {
                            "code": "198191", 
                            "display": "Ranitidine 150 MG Oral Tablet", 
                            "system": "http://www.nlm.nih.gov/research/umls/rxnorm"
                        }
                    ], 
                    "text": "Ranitidine 150 MG Oral Tablet"
                }, 
                "quantity": {
                    "code": "{tablets}", 
                    "system": "http://unitsofmeasure.org", 
                    "unit": "tablets", 
                    "value": 90.0
                }, 
                "resourceType": "MedicationDispense", 
                "status": "completed", 
                "subject": {
                    "reference": "Patient/ehealth-1642068"
                }, 
                "text": {
                    "div": "<div xmlns=\"http://www.w3.org/1999/xhtml\">Dispensed 90 tablets = 90 day supply of Ranitidine 150 MG Oral Tablet</div>", 
                    "status": "generated"
                }, 
                "whenHandedOver": "2009-03-19"
            }
        }, 
        {
            "request": {
                "method": "PUT", 
                "url": "MedicationDispense/ehealth-MedicationDispense-63"
            }, 
            "resource": {
                "authorizingPrescription": [
                    {
                        "reference": "MedicationRequest/ehealth-MedicationRequest-182"
                    }
                ], 
                "daysSupply": {
                    "code": "d", 
                    "system": "http://unitsofmeasure.org", 
                    "unit": "days", 
                    "value": 90
                }, 
                "id": "ehealth-MedicationDispense-63", 
                "medicationCodeableConcept": {
                    "coding": [
                        {
                            "code": "198191", 
                            "display": "Ranitidine 150 MG Oral Tablet", 
                            "system": "http://www.nlm.nih.gov/research/umls/rxnorm"
                        }
                    ], 
                    "text": "Ranitidine 150 MG Oral Tablet"
                }, 
                "quantity": {
                    "code": "{tablets}", 
                    "system": "http://unitsofmeasure.org", 
                    "unit": "tablets", 
                    "value": 90.0
                }, 
                "resourceType": "MedicationDispense", 
                "status": "completed", 
                "subject": {
                    "reference": "Patient/ehealth-1642068"
                }, 
                "text": {
                    "div": "<div xmlns=\"http://www.w3.org/1999/xhtml\">Dispensed 90 tablets = 90 day supply of Ranitidine 150 MG Oral Tablet</div>", 
                    "status": "generated"
                }, 
                "whenHandedOver": "2008-12-20"
            }
        }, 
        {
            "request": {
                "method": "PUT", 
                "url": "MedicationDispense/ehealth-MedicationDispense-65"
            }, 
            "resource": {
                "authorizingPrescription": [
                    {
                        "reference": "MedicationRequest/ehealth-MedicationRequest-182"
                    }
                ], 
                "daysSupply": {
                    "code": "d", 
                    "system": "http://unitsofmeasure.org", 
                    "unit": "days", 
                    "value": 90
                }, 
                "id": "ehealth-MedicationDispense-65", 
                "medicationCodeableConcept": {
                    "coding": [
                        {
                            "code": "198191", 
                            "display": "Ranitidine 150 MG Oral Tablet", 
                            "system": "http://www.nlm.nih.gov/research/umls/rxnorm"
                        }
                    ], 
                    "text": "Ranitidine 150 MG Oral Tablet"
                }, 
                "quantity": {
                    "code": "{tablets}", 
                    "system": "http://unitsofmeasure.org", 
                    "unit": "tablets", 
                    "value": 90.0
                }, 
                "resourceType": "MedicationDispense", 
                "status": "completed", 
                "subject": {
                    "reference": "Patient/ehealth-1642068"
                }, 
                "text": {
                    "div": "<div xmlns=\"http://www.w3.org/1999/xhtml\">Dispensed 90 tablets = 90 day supply of Ranitidine 150 MG Oral Tablet</div>", 
                    "status": "generated"
                }, 
                "whenHandedOver": "2009-06-18"
            }
        }, 
        {
            "request": {
                "method": "PUT", 
                "url": "MedicationDispense/ehealth-MedicationDispense-66"
            }, 
            "resource": {
                "authorizingPrescription": [
                    {
                        "reference": "MedicationRequest/ehealth-MedicationRequest-182"
                    }
                ], 
                "daysSupply": {
                    "code": "d", 
                    "system": "http://unitsofmeasure.org", 
                    "unit": "days", 
                    "value": 90
                }, 
                "id": "ehealth-MedicationDispense-66", 
                "medicationCodeableConcept": {
                    "coding": [
                        {
                            "code": "198191", 
                            "display": "Ranitidine 150 MG Oral Tablet", 
                            "system": "http://www.nlm.nih.gov/research/umls/rxnorm"
                        }
                    ], 
                    "text": "Ranitidine 150 MG Oral Tablet"
                }, 
                "quantity": {
                    "code": "{tablets}", 
                    "system": "http://unitsofmeasure.org", 
                    "unit": "tablets", 
                    "value": 90.0
                }, 
                "resourceType": "MedicationDispense", 
                "status": "completed", 
                "subject": {
                    "reference": "Patient/ehealth-1642068"
                }, 
                "text": {
                    "div": "<div xmlns=\"http://www.w3.org/1999/xhtml\">Dispensed 90 tablets = 90 day supply of Ranitidine 150 MG Oral Tablet</div>", 
                    "status": "generated"
                }, 
                "whenHandedOver": "2009-09-17"
            }
        }, 
        {
            "request": {
                "method": "PUT", 
                "url": "MedicationRequest/ehealth-MedicationRequest-183"
            }, 
            "resource": {
                "dispenseRequest": {
                    "expectedSupplyDuration": {
                        "code": "d", 
                        "system": "http://unitsofmeasure.org", 
                        "unit": "days", 
                        "value": 90
                    }, 
                    "numberOfRepeatsAllowed": 1, 
                    "quantity": {
                        "code": "{tablet}", 
                        "system": "http://unitsofmeasure.org", 
                        "unit": "{tablet}", 
                        "value": 12.0
                    }
                }, 
                "dosageInstruction": [
                    {
                        "doseQuantity": {
                            "code": "{tablet}", 
                            "system": "http://unitsofmeasure.org", 
                            "unit": "{tablet}", 
                            "value": 1.0
                        }, 
                        "text": "1 weekly", 
                        "timing": {
                            "repeat": {
                                "boundsPeriod": {
                                    "start": "2008-09-25"
                                }, 
                                "frequency": 1, 
                                "period": 1, 
                                "periodUnit": "wk"
                            }
                        }
                    }
                ], 
                "id": "ehealth-MedicationRequest-183", 
                "intent": "order", 
                "medicationCodeableConcept": {
                    "coding": [
                        {
                            "code": "617264", 
                            "display": "Alendronate 70 MG Oral Tablet", 
                            "system": "http://www.nlm.nih.gov/research/umls/rxnorm"
                        }
                    ], 
                    "text": "Alendronate 70 MG Oral Tablet"
                }, 
                "resourceType": "MedicationRequest", 
                "status": "active", 
                "subject": {
                    "reference": "Patient/ehealth-1642068"
                }, 
                "text": {
                    "div": "<div xmlns=\"http://www.w3.org/1999/xhtml\">Alendronate 70 MG Oral Tablet (rxnorm: 617264)</div>", 
                    "status": "generated"
                }
            }
        }, 
        {
            "request": {
                "method": "PUT", 
                "url": "MedicationDispense/ehealth-MedicationDispense-69"
            }, 
            "resource": {
                "authorizingPrescription": [
                    {
                        "reference": "MedicationRequest/ehealth-MedicationRequest-183"
                    }
                ], 
                "daysSupply": {
                    "code": "d", 
                    "system": "http://unitsofmeasure.org", 
                    "unit": "days", 
                    "value": 90
                }, 
                "id": "ehealth-MedicationDispense-69", 
                "medicationCodeableConcept": {
                    "coding": [
                        {
                            "code": "617264", 
                            "display": "Alendronate 70 MG Oral Tablet", 
                            "system": "http://www.nlm.nih.gov/research/umls/rxnorm"
                        }
                    ], 
                    "text": "Alendronate 70 MG Oral Tablet"
                }, 
                "quantity": {
                    "code": "{tablets}", 
                    "system": "http://unitsofmeasure.org", 
                    "unit": "tablets", 
                    "value": 12.0
                }, 
                "resourceType": "MedicationDispense", 
                "status": "completed", 
                "subject": {
                    "reference": "Patient/ehealth-1642068"
                }, 
                "text": {
                    "div": "<div xmlns=\"http://www.w3.org/1999/xhtml\">Dispensed 12 tablets = 90 day supply of Alendronate 70 MG Oral Tablet</div>", 
                    "status": "generated"
                }, 
                "whenHandedOver": "2009-03-14"
            }
        }, 
        {
            "request": {
                "method": "PUT", 
                "url": "MedicationDispense/ehealth-MedicationDispense-68"
            }, 
            "resource": {
                "authorizingPrescription": [
                    {
                        "reference": "MedicationRequest/ehealth-MedicationRequest-183"
                    }
                ], 
                "daysSupply": {
                    "code": "d", 
                    "system": "http://unitsofmeasure.org", 
                    "unit": "days", 
                    "value": 90
                }, 
                "id": "ehealth-MedicationDispense-68", 
                "medicationCodeableConcept": {
                    "coding": [
                        {
                            "code": "617264", 
                            "display": "Alendronate 70 MG Oral Tablet", 
                            "system": "http://www.nlm.nih.gov/research/umls/rxnorm"
                        }
                    ], 
                    "text": "Alendronate 70 MG Oral Tablet"
                }, 
                "quantity": {
                    "code": "{tablets}", 
                    "system": "http://unitsofmeasure.org", 
                    "unit": "tablets", 
                    "value": 12.0
                }, 
                "resourceType": "MedicationDispense", 
                "status": "completed", 
                "subject": {
                    "reference": "Patient/ehealth-1642068"
                }, 
                "text": {
                    "div": "<div xmlns=\"http://www.w3.org/1999/xhtml\">Dispensed 12 tablets = 90 day supply of Alendronate 70 MG Oral Tablet</div>", 
                    "status": "generated"
                }, 
                "whenHandedOver": "2008-12-18"
            }
        }, 
        {
            "request": {
                "method": "PUT", 
                "url": "MedicationDispense/ehealth-MedicationDispense-71"
            }, 
            "resource": {
                "authorizingPrescription": [
                    {
                        "reference": "MedicationRequest/ehealth-MedicationRequest-183"
                    }
                ], 
                "daysSupply": {
                    "code": "d", 
                    "system": "http://unitsofmeasure.org", 
                    "unit": "days", 
                    "value": 90
                }, 
                "id": "ehealth-MedicationDispense-71", 
                "medicationCodeableConcept": {
                    "coding": [
                        {
                            "code": "617264", 
                            "display": "Alendronate 70 MG Oral Tablet", 
                            "system": "http://www.nlm.nih.gov/research/umls/rxnorm"
                        }
                    ], 
                    "text": "Alendronate 70 MG Oral Tablet"
                }, 
                "quantity": {
                    "code": "{tablets}", 
                    "system": "http://unitsofmeasure.org", 
                    "unit": "tablets", 
                    "value": 12.0
                }, 
                "resourceType": "MedicationDispense", 
                "status": "completed", 
                "subject": {
                    "reference": "Patient/ehealth-1642068"
                }, 
                "text": {
                    "div": "<div xmlns=\"http://www.w3.org/1999/xhtml\">Dispensed 12 tablets = 90 day supply of Alendronate 70 MG Oral Tablet</div>", 
                    "status": "generated"
                }, 
                "whenHandedOver": "2009-09-03"
            }
        }, 
        {
            "request": {
                "method": "PUT", 
                "url": "MedicationDispense/ehealth-MedicationDispense-67"
            }, 
            "resource": {
                "authorizingPrescription": [
                    {
                        "reference": "MedicationRequest/ehealth-MedicationRequest-183"
                    }
                ], 
                "daysSupply": {
                    "code": "d", 
                    "system": "http://unitsofmeasure.org", 
                    "unit": "days", 
                    "value": 90
                }, 
                "id": "ehealth-MedicationDispense-67", 
                "medicationCodeableConcept": {
                    "coding": [
                        {
                            "code": "617264", 
                            "display": "Alendronate 70 MG Oral Tablet", 
                            "system": "http://www.nlm.nih.gov/research/umls/rxnorm"
                        }
                    ], 
                    "text": "Alendronate 70 MG Oral Tablet"
                }, 
                "quantity": {
                    "code": "{tablets}", 
                    "system": "http://unitsofmeasure.org", 
                    "unit": "tablets", 
                    "value": 12.0
                }, 
                "resourceType": "MedicationDispense", 
                "status": "completed", 
                "subject": {
                    "reference": "Patient/ehealth-1642068"
                }, 
                "text": {
                    "div": "<div xmlns=\"http://www.w3.org/1999/xhtml\">Dispensed 12 tablets = 90 day supply of Alendronate 70 MG Oral Tablet</div>", 
                    "status": "generated"
                }, 
                "whenHandedOver": "2008-09-25"
            }
        }, 
        {
            "request": {
                "method": "PUT", 
                "url": "MedicationDispense/ehealth-MedicationDispense-70"
            }, 
            "resource": {
                "authorizingPrescription": [
                    {
                        "reference": "MedicationRequest/ehealth-MedicationRequest-183"
                    }
                ], 
                "daysSupply": {
                    "code": "d", 
                    "system": "http://unitsofmeasure.org", 
                    "unit": "days", 
                    "value": 90
                }, 
                "id": "ehealth-MedicationDispense-70", 
                "medicationCodeableConcept": {
                    "coding": [
                        {
                            "code": "617264", 
                            "display": "Alendronate 70 MG Oral Tablet", 
                            "system": "http://www.nlm.nih.gov/research/umls/rxnorm"
                        }
                    ], 
                    "text": "Alendronate 70 MG Oral Tablet"
                }, 
                "quantity": {
                    "code": "{tablets}", 
                    "system": "http://unitsofmeasure.org", 
                    "unit": "tablets", 
                    "value": 12.0
                }, 
                "resourceType": "MedicationDispense", 
                "status": "completed", 
                "subject": {
                    "reference": "Patient/ehealth-1642068"
                }, 
                "text": {
                    "div": "<div xmlns=\"http://www.w3.org/1999/xhtml\">Dispensed 12 tablets = 90 day supply of Alendronate 70 MG Oral Tablet</div>", 
                    "status": "generated"
                }, 
                "whenHandedOver": "2009-06-04"
            }
        }, 
        {
            "request": {
                "method": "PUT", 
                "url": "MedicationRequest/ehealth-MedicationRequest-184"
            }, 
            "resource": {
                "dispenseRequest": {
                    "expectedSupplyDuration": {
                        "code": "d", 
                        "system": "http://unitsofmeasure.org", 
                        "unit": "days", 
                        "value": 90
                    }, 
                    "numberOfRepeatsAllowed": 1, 
                    "quantity": {
                        "code": "{tablet}", 
                        "system": "http://unitsofmeasure.org", 
                        "unit": "{tablet}", 
                        "value": 90.0
                    }
                }, 
                "dosageInstruction": [
                    {
                        "doseQuantity": {
                            "code": "{tablet}", 
                            "system": "http://unitsofmeasure.org", 
                            "unit": "{tablet}", 
                            "value": 1.0
                        }, 
                        "text": "1 qhs", 
                        "timing": {
                            "repeat": {
                                "boundsPeriod": {
                                    "start": "2008-10-02"
                                }, 
                                "frequency": 1, 
                                "period": 1, 
                                "periodUnit": "d"
                            }
                        }
                    }
                ], 
                "id": "ehealth-MedicationRequest-184", 
                "intent": "order", 
                "medicationCodeableConcept": {
                    "coding": [
                        {
                            "code": "312961", 
                            "display": "Simvastatin 20 MG Oral Tablet", 
                            "system": "http://www.nlm.nih.gov/research/umls/rxnorm"
                        }
                    ], 
                    "text": "Simvastatin 20 MG Oral Tablet"
                }, 
                "resourceType": "MedicationRequest", 
                "status": "active", 
                "subject": {
                    "reference": "Patient/ehealth-1642068"
                }, 
                "text": {
                    "div": "<div xmlns=\"http://www.w3.org/1999/xhtml\">Simvastatin 20 MG Oral Tablet (rxnorm: 312961)</div>", 
                    "status": "generated"
                }
            }
        }, 
        {
            "request": {
                "method": "PUT", 
                "url": "MedicationDispense/ehealth-MedicationDispense-88"
            }, 
            "resource": {
                "authorizingPrescription": [
                    {
                        "reference": "MedicationRequest/ehealth-MedicationRequest-184"
                    }
                ], 
                "daysSupply": {
                    "code": "d", 
                    "system": "http://unitsofmeasure.org", 
                    "unit": "days", 
                    "value": 90
                }, 
                "id": "ehealth-MedicationDispense-88", 
                "medicationCodeableConcept": {
                    "coding": [
                        {
                            "code": "312961", 
                            "display": "Simvastatin 20 MG Oral Tablet", 
                            "system": "http://www.nlm.nih.gov/research/umls/rxnorm"
                        }
                    ], 
                    "text": "Simvastatin 20 MG Oral Tablet"
                }, 
                "quantity": {
                    "code": "{tablets}", 
                    "system": "http://unitsofmeasure.org", 
                    "unit": "tablets", 
                    "value": 90.0
                }, 
                "resourceType": "MedicationDispense", 
                "status": "completed", 
                "subject": {
                    "reference": "Patient/ehealth-1642068"
                }, 
                "text": {
                    "div": "<div xmlns=\"http://www.w3.org/1999/xhtml\">Dispensed 90 tablets = 90 day supply of Simvastatin 20 MG Oral Tablet</div>", 
                    "status": "generated"
                }, 
                "whenHandedOver": "2009-07-09"
            }
        }, 
        {
            "request": {
                "method": "PUT", 
                "url": "MedicationDispense/ehealth-MedicationDispense-85"
            }, 
            "resource": {
                "authorizingPrescription": [
                    {
                        "reference": "MedicationRequest/ehealth-MedicationRequest-184"
                    }
                ], 
                "daysSupply": {
                    "code": "d", 
                    "system": "http://unitsofmeasure.org", 
                    "unit": "days", 
                    "value": 90
                }, 
                "id": "ehealth-MedicationDispense-85", 
                "medicationCodeableConcept": {
                    "coding": [
                        {
                            "code": "312961", 
                            "display": "Simvastatin 20 MG Oral Tablet", 
                            "system": "http://www.nlm.nih.gov/research/umls/rxnorm"
                        }
                    ], 
                    "text": "Simvastatin 20 MG Oral Tablet"
                }, 
                "quantity": {
                    "code": "{tablets}", 
                    "system": "http://unitsofmeasure.org", 
                    "unit": "tablets", 
                    "value": 90.0
                }, 
                "resourceType": "MedicationDispense", 
                "status": "completed", 
                "subject": {
                    "reference": "Patient/ehealth-1642068"
                }, 
                "text": {
                    "div": "<div xmlns=\"http://www.w3.org/1999/xhtml\">Dispensed 90 tablets = 90 day supply of Simvastatin 20 MG Oral Tablet</div>", 
                    "status": "generated"
                }, 
                "whenHandedOver": "2008-10-02"
            }
        }, 
        {
            "request": {
                "method": "PUT", 
                "url": "MedicationDispense/ehealth-MedicationDispense-86"
            }, 
            "resource": {
                "authorizingPrescription": [
                    {
                        "reference": "MedicationRequest/ehealth-MedicationRequest-184"
                    }
                ], 
                "daysSupply": {
                    "code": "d", 
                    "system": "http://unitsofmeasure.org", 
                    "unit": "days", 
                    "value": 90
                }, 
                "id": "ehealth-MedicationDispense-86", 
                "medicationCodeableConcept": {
                    "coding": [
                        {
                            "code": "312961", 
                            "display": "Simvastatin 20 MG Oral Tablet", 
                            "system": "http://www.nlm.nih.gov/research/umls/rxnorm"
                        }
                    ], 
                    "text": "Simvastatin 20 MG Oral Tablet"
                }, 
                "quantity": {
                    "code": "{tablets}", 
                    "system": "http://unitsofmeasure.org", 
                    "unit": "tablets", 
                    "value": 90.0
                }, 
                "resourceType": "MedicationDispense", 
                "status": "completed", 
                "subject": {
                    "reference": "Patient/ehealth-1642068"
                }, 
                "text": {
                    "div": "<div xmlns=\"http://www.w3.org/1999/xhtml\">Dispensed 90 tablets = 90 day supply of Simvastatin 20 MG Oral Tablet</div>", 
                    "status": "generated"
                }, 
                "whenHandedOver": "2008-12-26"
            }
        }, 
        {
            "request": {
                "method": "PUT", 
                "url": "MedicationDispense/ehealth-MedicationDispense-87"
            }, 
            "resource": {
                "authorizingPrescription": [
                    {
                        "reference": "MedicationRequest/ehealth-MedicationRequest-184"
                    }
                ], 
                "daysSupply": {
                    "code": "d", 
                    "system": "http://unitsofmeasure.org", 
                    "unit": "days", 
                    "value": 90
                }, 
                "id": "ehealth-MedicationDispense-87", 
                "medicationCodeableConcept": {
                    "coding": [
                        {
                            "code": "312961", 
                            "display": "Simvastatin 20 MG Oral Tablet", 
                            "system": "http://www.nlm.nih.gov/research/umls/rxnorm"
                        }
                    ], 
                    "text": "Simvastatin 20 MG Oral Tablet"
                }, 
                "quantity": {
                    "code": "{tablets}", 
                    "system": "http://unitsofmeasure.org", 
                    "unit": "tablets", 
                    "value": 90.0
                }, 
                "resourceType": "MedicationDispense", 
                "status": "completed", 
                "subject": {
                    "reference": "Patient/ehealth-1642068"
                }, 
                "text": {
                    "div": "<div xmlns=\"http://www.w3.org/1999/xhtml\">Dispensed 90 tablets = 90 day supply of Simvastatin 20 MG Oral Tablet</div>", 
                    "status": "generated"
                }, 
                "whenHandedOver": "2009-04-04"
            }
        }, 
        {
            "request": {
                "method": "PUT", 
                "url": "MedicationRequest/ehealth-MedicationRequest-185"
            }, 
            "resource": {
                "dispenseRequest": {
                    "expectedSupplyDuration": {
                        "code": "d", 
                        "system": "http://unitsofmeasure.org", 
                        "unit": "days", 
                        "value": 90
                    }, 
                    "numberOfRepeatsAllowed": 1, 
                    "quantity": {
                        "code": "{tablet}", 
                        "system": "http://unitsofmeasure.org", 
                        "unit": "{tablet}", 
                        "value": 270.0
                    }
                }, 
                "dosageInstruction": [
                    {
                        "asNeededBoolean": true, 
                        "doseQuantity": {
                            "code": "{tablet}", 
                            "system": "http://unitsofmeasure.org", 
                            "unit": "{tablet}", 
                            "value": 1.0
                        }, 
                        "text": "1 bid prn pain", 
                        "timing": {
                            "repeat": {
                                "boundsPeriod": {
                                    "start": "2008-10-24"
                                }, 
                                "frequency": 2, 
                                "period": 1, 
                                "periodUnit": "d"
                            }
                        }
                    }
                ], 
                "id": "ehealth-MedicationRequest-185", 
                "intent": "order", 
                "medicationCodeableConcept": {
                    "coding": [
                        {
                            "code": "855918", 
                            "display": "Diclofenac 75 MG / Misoprostol 0.2 MG Enteric Coated Tablet [Arthrotec 75/200]", 
                            "system": "http://www.nlm.nih.gov/research/umls/rxnorm"
                        }
                    ], 
                    "text": "Diclofenac 75 MG / Misoprostol 0.2 MG Enteric Coated Tablet [Arthrotec 75/200]"
                }, 
                "resourceType": "MedicationRequest", 
                "status": "active", 
                "subject": {
                    "reference": "Patient/ehealth-1642068"
                }, 
                "text": {
                    "div": "<div xmlns=\"http://www.w3.org/1999/xhtml\">Diclofenac 75 MG / Misoprostol 0.2 MG Enteric Coated Tablet [Arthrotec 75/200] (rxnorm: 855918)</div>", 
                    "status": "generated"
                }
            }
        }, 
        {
            "request": {
                "method": "PUT", 
                "url": "MedicationDispense/ehealth-MedicationDispense-84"
            }, 
            "resource": {
                "authorizingPrescription": [
                    {
                        "reference": "MedicationRequest/ehealth-MedicationRequest-185"
                    }
                ], 
                "daysSupply": {
                    "code": "d", 
                    "system": "http://unitsofmeasure.org", 
                    "unit": "days", 
                    "value": 90
                }, 
                "id": "ehealth-MedicationDispense-84", 
                "medicationCodeableConcept": {
                    "coding": [
                        {
                            "code": "855918", 
                            "display": "Diclofenac 75 MG / Misoprostol 0.2 MG Enteric Coated Tablet [Arthrotec 75/200]", 
                            "system": "http://www.nlm.nih.gov/research/umls/rxnorm"
                        }
                    ], 
                    "text": "Diclofenac 75 MG / Misoprostol 0.2 MG Enteric Coated Tablet [Arthrotec 75/200]"
                }, 
                "quantity": {
                    "code": "{tablets}", 
                    "system": "http://unitsofmeasure.org", 
                    "unit": "tablets", 
                    "value": 270.0
                }, 
                "resourceType": "MedicationDispense", 
                "status": "completed", 
                "subject": {
                    "reference": "Patient/ehealth-1642068"
                }, 
                "text": {
                    "div": "<div xmlns=\"http://www.w3.org/1999/xhtml\">Dispensed 270 tablets = 90 day supply of Diclofenac 75 MG / Misoprostol 0.2 MG Enteric Coated Tablet [Arthrotec 75/200]</div>", 
                    "status": "generated"
                }, 
                "whenHandedOver": "2009-09-03"
            }
        }, 
        {
            "request": {
                "method": "PUT", 
                "url": "MedicationDispense/ehealth-MedicationDispense-81"
            }, 
            "resource": {
                "authorizingPrescription": [
                    {
                        "reference": "MedicationRequest/ehealth-MedicationRequest-185"
                    }
                ], 
                "daysSupply": {
                    "code": "d", 
                    "system": "http://unitsofmeasure.org", 
                    "unit": "days", 
                    "value": 90
                }, 
                "id": "ehealth-MedicationDispense-81", 
                "medicationCodeableConcept": {
                    "coding": [
                        {
                            "code": "855918", 
                            "display": "Diclofenac 75 MG / Misoprostol 0.2 MG Enteric Coated Tablet [Arthrotec 75/200]", 
                            "system": "http://www.nlm.nih.gov/research/umls/rxnorm"
                        }
                    ], 
                    "text": "Diclofenac 75 MG / Misoprostol 0.2 MG Enteric Coated Tablet [Arthrotec 75/200]"
                }, 
                "quantity": {
                    "code": "{tablets}", 
                    "system": "http://unitsofmeasure.org", 
                    "unit": "tablets", 
                    "value": 270.0
                }, 
                "resourceType": "MedicationDispense", 
                "status": "completed", 
                "subject": {
                    "reference": "Patient/ehealth-1642068"
                }, 
                "text": {
                    "div": "<div xmlns=\"http://www.w3.org/1999/xhtml\">Dispensed 270 tablets = 90 day supply of Diclofenac 75 MG / Misoprostol 0.2 MG Enteric Coated Tablet [Arthrotec 75/200]</div>", 
                    "status": "generated"
                }, 
                "whenHandedOver": "2008-10-24"
            }
        }, 
        {
            "request": {
                "method": "PUT", 
                "url": "MedicationDispense/ehealth-MedicationDispense-83"
            }, 
            "resource": {
                "authorizingPrescription": [
                    {
                        "reference": "MedicationRequest/ehealth-MedicationRequest-185"
                    }
                ], 
                "daysSupply": {
                    "code": "d", 
                    "system": "http://unitsofmeasure.org", 
                    "unit": "days", 
                    "value": 90
                }, 
                "id": "ehealth-MedicationDispense-83", 
                "medicationCodeableConcept": {
                    "coding": [
                        {
                            "code": "855918", 
                            "display": "Diclofenac 75 MG / Misoprostol 0.2 MG Enteric Coated Tablet [Arthrotec 75/200]", 
                            "system": "http://www.nlm.nih.gov/research/umls/rxnorm"
                        }
                    ], 
                    "text": "Diclofenac 75 MG / Misoprostol 0.2 MG Enteric Coated Tablet [Arthrotec 75/200]"
                }, 
                "quantity": {
                    "code": "{tablets}", 
                    "system": "http://unitsofmeasure.org", 
                    "unit": "tablets", 
                    "value": 270.0
                }, 
                "resourceType": "MedicationDispense", 
                "status": "completed", 
                "subject": {
                    "reference": "Patient/ehealth-1642068"
                }, 
                "text": {
                    "div": "<div xmlns=\"http://www.w3.org/1999/xhtml\">Dispensed 270 tablets = 90 day supply of Diclofenac 75 MG / Misoprostol 0.2 MG Enteric Coated Tablet [Arthrotec 75/200]</div>", 
                    "status": "generated"
                }, 
                "whenHandedOver": "2009-05-02"
            }
        }, 
        {
            "request": {
                "method": "PUT", 
                "url": "MedicationDispense/ehealth-MedicationDispense-82"
            }, 
            "resource": {
                "authorizingPrescription": [
                    {
                        "reference": "MedicationRequest/ehealth-MedicationRequest-185"
                    }
                ], 
                "daysSupply": {
                    "code": "d", 
                    "system": "http://unitsofmeasure.org", 
                    "unit": "days", 
                    "value": 90
                }, 
                "id": "ehealth-MedicationDispense-82", 
                "medicationCodeableConcept": {
                    "coding": [
                        {
                            "code": "855918", 
                            "display": "Diclofenac 75 MG / Misoprostol 0.2 MG Enteric Coated Tablet [Arthrotec 75/200]", 
                            "system": "http://www.nlm.nih.gov/research/umls/rxnorm"
                        }
                    ], 
                    "text": "Diclofenac 75 MG / Misoprostol 0.2 MG Enteric Coated Tablet [Arthrotec 75/200]"
                }, 
                "quantity": {
                    "code": "{tablets}", 
                    "system": "http://unitsofmeasure.org", 
                    "unit": "tablets", 
                    "value": 270.0
                }, 
                "resourceType": "MedicationDispense", 
                "status": "completed", 
                "subject": {
                    "reference": "Patient/ehealth-1642068"
                }, 
                "text": {
                    "div": "<div xmlns=\"http://www.w3.org/1999/xhtml\">Dispensed 270 tablets = 90 day supply of Diclofenac 75 MG / Misoprostol 0.2 MG Enteric Coated Tablet [Arthrotec 75/200]</div>", 
                    "status": "generated"
                }, 
                "whenHandedOver": "2009-01-18"
            }
        }, 
        {
            "request": {
                "method": "PUT", 
                "url": "MedicationRequest/ehealth-MedicationRequest-186"
            }, 
            "resource": {
                "dispenseRequest": {
                    "expectedSupplyDuration": {
                        "code": "d", 
                        "system": "http://unitsofmeasure.org", 
                        "unit": "days", 
                        "value": 90
                    }, 
                    "numberOfRepeatsAllowed": 1, 
                    "quantity": {
                        "code": "{tablet}", 
                        "system": "http://unitsofmeasure.org", 
                        "unit": "{tablet}", 
                        "value": 90.0
                    }
                }, 
                "dosageInstruction": [
                    {
                        "doseQuantity": {
                            "code": "{tablet}", 
                            "system": "http://unitsofmeasure.org", 
                            "unit": "{tablet}", 
                            "value": 1.0
                        }, 
                        "text": "1 daily", 
                        "timing": {
                            "repeat": {
                                "boundsPeriod": {
                                    "start": "2008-12-01"
                                }, 
                                "frequency": 1, 
                                "period": 1, 
                                "periodUnit": "d"
                            }
                        }
                    }
                ], 
                "id": "ehealth-MedicationRequest-186", 
                "intent": "order", 
                "medicationCodeableConcept": {
                    "coding": [
                        {
                            "code": "197886", 
                            "display": "Hydrochlorothiazide 12.5 MG / Lisinopril 20 MG Oral Tablet", 
                            "system": "http://www.nlm.nih.gov/research/umls/rxnorm"
                        }
                    ], 
                    "text": "Hydrochlorothiazide 12.5 MG / Lisinopril 20 MG Oral Tablet"
                }, 
                "resourceType": "MedicationRequest", 
                "status": "active", 
                "subject": {
                    "reference": "Patient/ehealth-1642068"
                }, 
                "text": {
                    "div": "<div xmlns=\"http://www.w3.org/1999/xhtml\">Hydrochlorothiazide 12.5 MG / Lisinopril 20 MG Oral Tablet (rxnorm: 197886)</div>", 
                    "status": "generated"
                }
            }
        }, 
        {
            "request": {
                "method": "PUT", 
                "url": "MedicationDispense/ehealth-MedicationDispense-75"
            }, 
            "resource": {
                "authorizingPrescription": [
                    {
                        "reference": "MedicationRequest/ehealth-MedicationRequest-186"
                    }
                ], 
                "daysSupply": {
                    "code": "d", 
                    "system": "http://unitsofmeasure.org", 
                    "unit": "days", 
                    "value": 90
                }, 
                "id": "ehealth-MedicationDispense-75", 
                "medicationCodeableConcept": {
                    "coding": [
                        {
                            "code": "197886", 
                            "display": "Hydrochlorothiazide 12.5 MG / Lisinopril 20 MG Oral Tablet", 
                            "system": "http://www.nlm.nih.gov/research/umls/rxnorm"
                        }
                    ], 
                    "text": "Hydrochlorothiazide 12.5 MG / Lisinopril 20 MG Oral Tablet"
                }, 
                "quantity": {
                    "code": "{tablets}", 
                    "system": "http://unitsofmeasure.org", 
                    "unit": "tablets", 
                    "value": 90.0
                }, 
                "resourceType": "MedicationDispense", 
                "status": "completed", 
                "subject": {
                    "reference": "Patient/ehealth-1642068"
                }, 
                "text": {
                    "div": "<div xmlns=\"http://www.w3.org/1999/xhtml\">Dispensed 90 tablets = 90 day supply of Hydrochlorothiazide 12.5 MG / Lisinopril 20 MG Oral Tablet</div>", 
                    "status": "generated"
                }, 
                "whenHandedOver": "2009-02-26"
            }
        }, 
        {
            "request": {
                "method": "PUT", 
                "url": "MedicationDispense/ehealth-MedicationDispense-76"
            }, 
            "resource": {
                "authorizingPrescription": [
                    {
                        "reference": "MedicationRequest/ehealth-MedicationRequest-186"
                    }
                ], 
                "daysSupply": {
                    "code": "d", 
                    "system": "http://unitsofmeasure.org", 
                    "unit": "days", 
                    "value": 90
                }, 
                "id": "ehealth-MedicationDispense-76", 
                "medicationCodeableConcept": {
                    "coding": [
                        {
                            "code": "197886", 
                            "display": "Hydrochlorothiazide 12.5 MG / Lisinopril 20 MG Oral Tablet", 
                            "system": "http://www.nlm.nih.gov/research/umls/rxnorm"
                        }
                    ], 
                    "text": "Hydrochlorothiazide 12.5 MG / Lisinopril 20 MG Oral Tablet"
                }, 
                "quantity": {
                    "code": "{tablets}", 
                    "system": "http://unitsofmeasure.org", 
                    "unit": "tablets", 
                    "value": 90.0
                }, 
                "resourceType": "MedicationDispense", 
                "status": "completed", 
                "subject": {
                    "reference": "Patient/ehealth-1642068"
                }, 
                "text": {
                    "div": "<div xmlns=\"http://www.w3.org/1999/xhtml\">Dispensed 90 tablets = 90 day supply of Hydrochlorothiazide 12.5 MG / Lisinopril 20 MG Oral Tablet</div>", 
                    "status": "generated"
                }, 
                "whenHandedOver": "2009-05-22"
            }
        }, 
        {
            "request": {
                "method": "PUT", 
                "url": "MedicationDispense/ehealth-MedicationDispense-74"
            }, 
            "resource": {
                "authorizingPrescription": [
                    {
                        "reference": "MedicationRequest/ehealth-MedicationRequest-186"
                    }
                ], 
                "daysSupply": {
                    "code": "d", 
                    "system": "http://unitsofmeasure.org", 
                    "unit": "days", 
                    "value": 90
                }, 
                "id": "ehealth-MedicationDispense-74", 
                "medicationCodeableConcept": {
                    "coding": [
                        {
                            "code": "197886", 
                            "display": "Hydrochlorothiazide 12.5 MG / Lisinopril 20 MG Oral Tablet", 
                            "system": "http://www.nlm.nih.gov/research/umls/rxnorm"
                        }
                    ], 
                    "text": "Hydrochlorothiazide 12.5 MG / Lisinopril 20 MG Oral Tablet"
                }, 
                "quantity": {
                    "code": "{tablets}", 
                    "system": "http://unitsofmeasure.org", 
                    "unit": "tablets", 
                    "value": 90.0
                }, 
                "resourceType": "MedicationDispense", 
                "status": "completed", 
                "subject": {
                    "reference": "Patient/ehealth-1642068"
                }, 
                "text": {
                    "div": "<div xmlns=\"http://www.w3.org/1999/xhtml\">Dispensed 90 tablets = 90 day supply of Hydrochlorothiazide 12.5 MG / Lisinopril 20 MG Oral Tablet</div>", 
                    "status": "generated"
                }, 
                "whenHandedOver": "2008-12-01"
            }
        }, 
        {
            "request": {
                "method": "PUT", 
                "url": "MedicationRequest/ehealth-MedicationRequest-187"
            }, 
            "resource": {
                "dispenseRequest": {
                    "expectedSupplyDuration": {
                        "code": "d", 
                        "system": "http://unitsofmeasure.org", 
                        "unit": "days", 
                        "value": 60
                    }, 
                    "numberOfRepeatsAllowed": 1, 
                    "quantity": {
                        "code": "{puff}", 
                        "system": "http://unitsofmeasure.org", 
                        "unit": "{puff}", 
                        "value": 1.0
                    }
                }, 
                "dosageInstruction": [
                    {
                        "doseQuantity": {
                            "code": "{puff}", 
                            "system": "http://unitsofmeasure.org", 
                            "unit": "{puff}", 
                            "value": 1.0
                        }, 
                        "text": "1 puff bid", 
                        "timing": {
                            "repeat": {
                                "boundsPeriod": {
                                    "start": "2008-12-20"
                                }, 
                                "frequency": 2, 
                                "period": 1, 
                                "periodUnit": "d"
                            }
                        }
                    }
                ], 
                "id": "ehealth-MedicationRequest-187", 
                "intent": "order", 
                "medicationCodeableConcept": {
                    "coding": [
                        {
                            "code": "746201", 
                            "display": "120 ACTUAT mometasone furoate 0.05 MG/ACTUAT Nasal Inhaler [Nasonex]", 
                            "system": "http://www.nlm.nih.gov/research/umls/rxnorm"
                        }
                    ], 
                    "text": "120 ACTUAT mometasone furoate 0.05 MG/ACTUAT Nasal Inhaler [Nasonex]"
                }, 
                "resourceType": "MedicationRequest", 
                "status": "active", 
                "subject": {
                    "reference": "Patient/ehealth-1642068"
                }, 
                "text": {
                    "div": "<div xmlns=\"http://www.w3.org/1999/xhtml\">120 ACTUAT mometasone furoate 0.05 MG/ACTUAT Nasal Inhaler [Nasonex] (rxnorm: 746201)</div>", 
                    "status": "generated"
                }
            }
        }, 
        {
            "request": {
                "method": "PUT", 
                "url": "MedicationDispense/ehealth-MedicationDispense-55"
            }, 
            "resource": {
                "authorizingPrescription": [
                    {
                        "reference": "MedicationRequest/ehealth-MedicationRequest-187"
                    }
                ], 
                "daysSupply": {
                    "code": "d", 
                    "system": "http://unitsofmeasure.org", 
                    "unit": "days", 
                    "value": 30
                }, 
                "id": "ehealth-MedicationDispense-55", 
                "medicationCodeableConcept": {
                    "coding": [
                        {
                            "code": "746201", 
                            "display": "120 ACTUAT mometasone furoate 0.05 MG/ACTUAT Nasal Inhaler [Nasonex]", 
                            "system": "http://www.nlm.nih.gov/research/umls/rxnorm"
                        }
                    ], 
                    "text": "120 ACTUAT mometasone furoate 0.05 MG/ACTUAT Nasal Inhaler [Nasonex]"
                }, 
                "quantity": {
                    "code": "{tablets}", 
                    "system": "http://unitsofmeasure.org", 
                    "unit": "tablets", 
                    "value": 17.0
                }, 
                "resourceType": "MedicationDispense", 
                "status": "completed", 
                "subject": {
                    "reference": "Patient/ehealth-1642068"
                }, 
                "text": {
                    "div": "<div xmlns=\"http://www.w3.org/1999/xhtml\">Dispensed 17 tablets = 30 day supply of 120 ACTUAT mometasone furoate 0.05 MG/ACTUAT Nasal Inhaler [Nasonex]</div>", 
                    "status": "generated"
                }, 
                "whenHandedOver": "2009-07-17"
            }
        }, 
        {
            "request": {
                "method": "PUT", 
                "url": "MedicationDispense/ehealth-MedicationDispense-54"
            }, 
            "resource": {
                "authorizingPrescription": [
                    {
                        "reference": "MedicationRequest/ehealth-MedicationRequest-187"
                    }
                ], 
                "daysSupply": {
                    "code": "d", 
                    "system": "http://unitsofmeasure.org", 
                    "unit": "days", 
                    "value": 30
                }, 
                "id": "ehealth-MedicationDispense-54", 
                "medicationCodeableConcept": {
                    "coding": [
                        {
                            "code": "746201", 
                            "display": "120 ACTUAT mometasone furoate 0.05 MG/ACTUAT Nasal Inhaler [Nasonex]", 
                            "system": "http://www.nlm.nih.gov/research/umls/rxnorm"
                        }
                    ], 
                    "text": "120 ACTUAT mometasone furoate 0.05 MG/ACTUAT Nasal Inhaler [Nasonex]"
                }, 
                "quantity": {
                    "code": "{tablets}", 
                    "system": "http://unitsofmeasure.org", 
                    "unit": "tablets", 
                    "value": 17.0
                }, 
                "resourceType": "MedicationDispense", 
                "status": "completed", 
                "subject": {
                    "reference": "Patient/ehealth-1642068"
                }, 
                "text": {
                    "div": "<div xmlns=\"http://www.w3.org/1999/xhtml\">Dispensed 17 tablets = 30 day supply of 120 ACTUAT mometasone furoate 0.05 MG/ACTUAT Nasal Inhaler [Nasonex]</div>", 
                    "status": "generated"
                }, 
                "whenHandedOver": "2008-12-20"
            }
        }, 
        {
            "request": {
                "method": "PUT", 
                "url": "MedicationDispense/ehealth-MedicationDispense-56"
            }, 
            "resource": {
                "authorizingPrescription": [
                    {
                        "reference": "MedicationRequest/ehealth-MedicationRequest-187"
                    }
                ], 
                "daysSupply": {
                    "code": "d", 
                    "system": "http://unitsofmeasure.org", 
                    "unit": "days", 
                    "value": 30
                }, 
                "id": "ehealth-MedicationDispense-56", 
                "medicationCodeableConcept": {
                    "coding": [
                        {
                            "code": "746201", 
                            "display": "120 ACTUAT mometasone furoate 0.05 MG/ACTUAT Nasal Inhaler [Nasonex]", 
                            "system": "http://www.nlm.nih.gov/research/umls/rxnorm"
                        }
                    ], 
                    "text": "120 ACTUAT mometasone furoate 0.05 MG/ACTUAT Nasal Inhaler [Nasonex]"
                }, 
                "quantity": {
                    "code": "{tablets}", 
                    "system": "http://unitsofmeasure.org", 
                    "unit": "tablets", 
                    "value": 17.0
                }, 
                "resourceType": "MedicationDispense", 
                "status": "completed", 
                "subject": {
                    "reference": "Patient/ehealth-1642068"
                }, 
                "text": {
                    "div": "<div xmlns=\"http://www.w3.org/1999/xhtml\">Dispensed 17 tablets = 30 day supply of 120 ACTUAT mometasone furoate 0.05 MG/ACTUAT Nasal Inhaler [Nasonex]</div>", 
                    "status": "generated"
                }, 
                "whenHandedOver": "2009-09-03"
            }
        }, 
        {
            "request": {
                "method": "PUT", 
                "url": "MedicationRequest/ehealth-MedicationRequest-188"
            }, 
            "resource": {
                "dispenseRequest": {
                    "expectedSupplyDuration": {
                        "code": "d", 
                        "system": "http://unitsofmeasure.org", 
                        "unit": "days", 
                        "value": 90
                    }, 
                    "numberOfRepeatsAllowed": 1, 
                    "quantity": {
                        "code": "{tablet}", 
                        "system": "http://unitsofmeasure.org", 
                        "unit": "{tablet}", 
                        "value": 90.0
                    }
                }, 
                "dosageInstruction": [
                    {
                        "doseQuantity": {
                            "code": "{tablet}", 
                            "system": "http://unitsofmeasure.org", 
                            "unit": "{tablet}", 
                            "value": 1.0
                        }, 
                        "text": "1 daily", 
                        "timing": {
                            "repeat": {
                                "boundsPeriod": {
                                    "start": "2009-03-19"
                                }, 
                                "frequency": 1, 
                                "period": 1, 
                                "periodUnit": "d"
                            }
                        }
                    }
                ], 
                "id": "ehealth-MedicationRequest-188", 
                "intent": "order", 
                "medicationCodeableConcept": {
                    "coding": [
                        {
                            "code": "284400", 
                            "display": "pantoprazole 40 MG Enteric Coated Tablet [Protonix]", 
                            "system": "http://www.nlm.nih.gov/research/umls/rxnorm"
                        }
                    ], 
                    "text": "pantoprazole 40 MG Enteric Coated Tablet [Protonix]"
                }, 
                "resourceType": "MedicationRequest", 
                "status": "active", 
                "subject": {
                    "reference": "Patient/ehealth-1642068"
                }, 
                "text": {
                    "div": "<div xmlns=\"http://www.w3.org/1999/xhtml\">pantoprazole 40 MG Enteric Coated Tablet [Protonix] (rxnorm: 284400)</div>", 
                    "status": "generated"
                }
            }
        }, 
        {
            "request": {
                "method": "PUT", 
                "url": "MedicationDispense/ehealth-MedicationDispense-79"
            }, 
            "resource": {
                "authorizingPrescription": [
                    {
                        "reference": "MedicationRequest/ehealth-MedicationRequest-188"
                    }
                ], 
                "daysSupply": {
                    "code": "d", 
                    "system": "http://unitsofmeasure.org", 
                    "unit": "days", 
                    "value": 90
                }, 
                "id": "ehealth-MedicationDispense-79", 
                "medicationCodeableConcept": {
                    "coding": [
                        {
                            "code": "284400", 
                            "display": "pantoprazole 40 MG Enteric Coated Tablet [Protonix]", 
                            "system": "http://www.nlm.nih.gov/research/umls/rxnorm"
                        }
                    ], 
                    "text": "pantoprazole 40 MG Enteric Coated Tablet [Protonix]"
                }, 
                "quantity": {
                    "code": "{tablets}", 
                    "system": "http://unitsofmeasure.org", 
                    "unit": "tablets", 
                    "value": 90.0
                }, 
                "resourceType": "MedicationDispense", 
                "status": "completed", 
                "subject": {
                    "reference": "Patient/ehealth-1642068"
                }, 
                "text": {
                    "div": "<div xmlns=\"http://www.w3.org/1999/xhtml\">Dispensed 90 tablets = 90 day supply of pantoprazole 40 MG Enteric Coated Tablet [Protonix]</div>", 
                    "status": "generated"
                }, 
                "whenHandedOver": "2009-09-17"
            }
        }, 
        {
            "request": {
                "method": "PUT", 
                "url": "MedicationDispense/ehealth-MedicationDispense-78"
            }, 
            "resource": {
                "authorizingPrescription": [
                    {
                        "reference": "MedicationRequest/ehealth-MedicationRequest-188"
                    }
                ], 
                "daysSupply": {
                    "code": "d", 
                    "system": "http://unitsofmeasure.org", 
                    "unit": "days", 
                    "value": 90
                }, 
                "id": "ehealth-MedicationDispense-78", 
                "medicationCodeableConcept": {
                    "coding": [
                        {
                            "code": "284400", 
                            "display": "pantoprazole 40 MG Enteric Coated Tablet [Protonix]", 
                            "system": "http://www.nlm.nih.gov/research/umls/rxnorm"
                        }
                    ], 
                    "text": "pantoprazole 40 MG Enteric Coated Tablet [Protonix]"
                }, 
                "quantity": {
                    "code": "{tablets}", 
                    "system": "http://unitsofmeasure.org", 
                    "unit": "tablets", 
                    "value": 90.0
                }, 
                "resourceType": "MedicationDispense", 
                "status": "completed", 
                "subject": {
                    "reference": "Patient/ehealth-1642068"
                }, 
                "text": {
                    "div": "<div xmlns=\"http://www.w3.org/1999/xhtml\">Dispensed 90 tablets = 90 day supply of pantoprazole 40 MG Enteric Coated Tablet [Protonix]</div>", 
                    "status": "generated"
                }, 
                "whenHandedOver": "2009-06-18"
            }
        }, 
        {
            "request": {
                "method": "PUT", 
                "url": "MedicationDispense/ehealth-MedicationDispense-77"
            }, 
            "resource": {
                "authorizingPrescription": [
                    {
                        "reference": "MedicationRequest/ehealth-MedicationRequest-188"
                    }
                ], 
                "daysSupply": {
                    "code": "d", 
                    "system": "http://unitsofmeasure.org", 
                    "unit": "days", 
                    "value": 90
                }, 
                "id": "ehealth-MedicationDispense-77", 
                "medicationCodeableConcept": {
                    "coding": [
                        {
                            "code": "284400", 
                            "display": "pantoprazole 40 MG Enteric Coated Tablet [Protonix]", 
                            "system": "http://www.nlm.nih.gov/research/umls/rxnorm"
                        }
                    ], 
                    "text": "pantoprazole 40 MG Enteric Coated Tablet [Protonix]"
                }, 
                "quantity": {
                    "code": "{tablets}", 
                    "system": "http://unitsofmeasure.org", 
                    "unit": "tablets", 
                    "value": 90.0
                }, 
                "resourceType": "MedicationDispense", 
                "status": "completed", 
                "subject": {
                    "reference": "Patient/ehealth-1642068"
                }, 
                "text": {
                    "div": "<div xmlns=\"http://www.w3.org/1999/xhtml\">Dispensed 90 tablets = 90 day supply of pantoprazole 40 MG Enteric Coated Tablet [Protonix]</div>", 
                    "status": "generated"
                }, 
                "whenHandedOver": "2009-03-19"
            }
        }, 
        {
            "request": {
                "method": "PUT", 
                "url": "MedicationRequest/ehealth-MedicationRequest-189"
            }, 
            "resource": {
                "dispenseRequest": {
                    "expectedSupplyDuration": {
                        "code": "d", 
                        "system": "http://unitsofmeasure.org", 
                        "unit": "days", 
                        "value": 60
                    }, 
                    "numberOfRepeatsAllowed": 1, 
                    "quantity": {
                        "code": "{tablet}", 
                        "system": "http://unitsofmeasure.org", 
                        "unit": "{tablet}", 
                        "value": 60.0
                    }
                }, 
                "dosageInstruction": [
                    {
                        "doseQuantity": {
                            "code": "{tablet}", 
                            "system": "http://unitsofmeasure.org", 
                            "unit": "{tablet}", 
                            "value": 1.0
                        }, 
                        "text": "1 daily", 
                        "timing": {
                            "repeat": {
                                "boundsPeriod": {
                                    "start": "2009-06-22"
                                }, 
                                "frequency": 1, 
                                "period": 1, 
                                "periodUnit": "d"
                            }
                        }
                    }
                ], 
                "id": "ehealth-MedicationRequest-189", 
                "intent": "order", 
                "medicationCodeableConcept": {
                    "coding": [
                        {
                            "code": "314077", 
                            "display": "Lisinopril 20 MG Oral Tablet", 
                            "system": "http://www.nlm.nih.gov/research/umls/rxnorm"
                        }
                    ], 
                    "text": "Lisinopril 20 MG Oral Tablet"
                }, 
                "resourceType": "MedicationRequest", 
                "status": "active", 
                "subject": {
                    "reference": "Patient/ehealth-1642068"
                }, 
                "text": {
                    "div": "<div xmlns=\"http://www.w3.org/1999/xhtml\">Lisinopril 20 MG Oral Tablet (rxnorm: 314077)</div>", 
                    "status": "generated"
                }
            }
        }, 
        {
            "request": {
                "method": "PUT", 
                "url": "MedicationDispense/ehealth-MedicationDispense-73"
            }, 
            "resource": {
                "authorizingPrescription": [
                    {
                        "reference": "MedicationRequest/ehealth-MedicationRequest-189"
                    }
                ], 
                "daysSupply": {
                    "code": "d", 
                    "system": "http://unitsofmeasure.org", 
                    "unit": "days", 
                    "value": 90
                }, 
                "id": "ehealth-MedicationDispense-73", 
                "medicationCodeableConcept": {
                    "coding": [
                        {
                            "code": "314077", 
                            "display": "Lisinopril 20 MG Oral Tablet", 
                            "system": "http://www.nlm.nih.gov/research/umls/rxnorm"
                        }
                    ], 
                    "text": "Lisinopril 20 MG Oral Tablet"
                }, 
                "quantity": {
                    "code": "{tablets}", 
                    "system": "http://unitsofmeasure.org", 
                    "unit": "tablets", 
                    "value": 90.0
                }, 
                "resourceType": "MedicationDispense", 
                "status": "completed", 
                "subject": {
                    "reference": "Patient/ehealth-1642068"
                }, 
                "text": {
                    "div": "<div xmlns=\"http://www.w3.org/1999/xhtml\">Dispensed 90 tablets = 90 day supply of Lisinopril 20 MG Oral Tablet</div>", 
                    "status": "generated"
                }, 
                "whenHandedOver": "2009-08-24"
            }
        }, 
        {
            "request": {
                "method": "PUT", 
                "url": "MedicationDispense/ehealth-MedicationDispense-72"
            }, 
            "resource": {
                "authorizingPrescription": [
                    {
                        "reference": "MedicationRequest/ehealth-MedicationRequest-189"
                    }
                ], 
                "daysSupply": {
                    "code": "d", 
                    "system": "http://unitsofmeasure.org", 
                    "unit": "days", 
                    "value": 60
                }, 
                "id": "ehealth-MedicationDispense-72", 
                "medicationCodeableConcept": {
                    "coding": [
                        {
                            "code": "314077", 
                            "display": "Lisinopril 20 MG Oral Tablet", 
                            "system": "http://www.nlm.nih.gov/research/umls/rxnorm"
                        }
                    ], 
                    "text": "Lisinopril 20 MG Oral Tablet"
                }, 
                "quantity": {
                    "code": "{tablets}", 
                    "system": "http://unitsofmeasure.org", 
                    "unit": "tablets", 
                    "value": 60.0
                }, 
                "resourceType": "MedicationDispense", 
                "status": "completed", 
                "subject": {
                    "reference": "Patient/ehealth-1642068"
                }, 
                "text": {
                    "div": "<div xmlns=\"http://www.w3.org/1999/xhtml\">Dispensed 60 tablets = 60 day supply of Lisinopril 20 MG Oral Tablet</div>", 
                    "status": "generated"
                }, 
                "whenHandedOver": "2009-06-22"
            }
        }, 
        {
            "request": {
                "method": "PUT", 
                "url": "Condition/ehealth-Condition-33"
            }, 
            "resource": {
                "clinicalStatus": "active", 
                "code": {
                    "coding": [
                        {
                            "code": "78809005", 
                            "display": "Benign neoplasm of stomach", 
                            "system": "http://snomed.info/sct"
                        }
                    ], 
                    "text": "Benign neoplasm of stomach"
                }, 
                "id": "ehealth-Condition-33", 
                "onsetDateTime": "2004-12-19", 
                "resourceType": "Condition", 
                "subject": {
                    "reference": "Patient/ehealth-1642068"
                }, 
                "text": {
                    "div": "<div xmlns=\"http://www.w3.org/1999/xhtml\">Benign neoplasm of stomach</div>", 
                    "status": "generated"
                }, 
                "verificationStatus": "confirmed"
            }
        }, 
        {
            "request": {
                "method": "PUT", 
                "url": "Condition/ehealth-Condition-34"
            }, 
            "resource": {
                "clinicalStatus": "active", 
                "code": {
                    "coding": [
                        {
                            "code": "38341003", 
                            "display": "Essential hypertension", 
                            "system": "http://snomed.info/sct"
                        }
                    ], 
                    "text": "Essential hypertension"
                }, 
                "id": "ehealth-Condition-34", 
                "onsetDateTime": "2004-12-19", 
                "resourceType": "Condition", 
                "subject": {
                    "reference": "Patient/ehealth-1642068"
                }, 
                "text": {
                    "div": "<div xmlns=\"http://www.w3.org/1999/xhtml\">Essential hypertension</div>", 
                    "status": "generated"
                }, 
                "verificationStatus": "confirmed"
            }
        }, 
        {
            "request": {
                "method": "PUT", 
                "url": "Condition/ehealth-Condition-35"
            }, 
            "resource": {
                "clinicalStatus": "active", 
                "code": {
                    "coding": [
                        {
                            "code": "235651006", 
                            "display": "Gastritis", 
                            "system": "http://snomed.info/sct"
                        }
                    ], 
                    "text": "Gastritis"
                }, 
                "id": "ehealth-Condition-35", 
                "onsetDateTime": "2004-12-19", 
                "resourceType": "Condition", 
                "subject": {
                    "reference": "Patient/ehealth-1642068"
                }, 
                "text": {
                    "div": "<div xmlns=\"http://www.w3.org/1999/xhtml\">Gastritis</div>", 
                    "status": "generated"
                }, 
                "verificationStatus": "confirmed"
            }
        }, 
        {
            "request": {
                "method": "PUT", 
                "url": "Condition/ehealth-Condition-36"
            }, 
            "resource": {
                "clinicalStatus": "active", 
                "code": {
                    "coding": [
                        {
                            "code": "40930008", 
                            "display": "Hypothyroidism", 
                            "system": "http://snomed.info/sct"
                        }
                    ], 
                    "text": "Hypothyroidism"
                }, 
                "id": "ehealth-Condition-36", 
                "onsetDateTime": "2004-12-19", 
                "resourceType": "Condition", 
                "subject": {
                    "reference": "Patient/ehealth-1642068"
                }, 
                "text": {
                    "div": "<div xmlns=\"http://www.w3.org/1999/xhtml\">Hypothyroidism</div>", 
                    "status": "generated"
                }, 
                "verificationStatus": "confirmed"
            }
        }, 
        {
            "request": {
                "method": "PUT", 
                "url": "Condition/ehealth-Condition-37"
            }, 
            "resource": {
                "clinicalStatus": "active", 
                "code": {
                    "coding": [
                        {
                            "code": "236104004", 
                            "display": "Other specified disorders of stomach and duodenum", 
                            "system": "http://snomed.info/sct"
                        }
                    ], 
                    "text": "Other specified disorders of stomach and duodenum"
                }, 
                "id": "ehealth-Condition-37", 
                "onsetDateTime": "2004-12-19", 
                "resourceType": "Condition", 
                "subject": {
                    "reference": "Patient/ehealth-1642068"
                }, 
                "text": {
                    "div": "<div xmlns=\"http://www.w3.org/1999/xhtml\">Other specified disorders of stomach and duodenum</div>", 
                    "status": "generated"
                }, 
                "verificationStatus": "confirmed"
            }
        }, 
        {
            "request": {
                "method": "PUT", 
                "url": "Condition/ehealth-Condition-38"
            }, 
            "resource": {
                "clinicalStatus": "active", 
                "code": {
                    "coding": [
                        {
                            "code": "84027009", 
                            "display": "Pernicious anemia", 
                            "system": "http://snomed.info/sct"
                        }
                    ], 
                    "text": "Pernicious anemia"
                }, 
                "id": "ehealth-Condition-38", 
                "onsetDateTime": "2004-12-19", 
                "resourceType": "Condition", 
                "subject": {
                    "reference": "Patient/ehealth-1642068"
                }, 
                "text": {
                    "div": "<div xmlns=\"http://www.w3.org/1999/xhtml\">Pernicious anemia</div>", 
                    "status": "generated"
                }, 
                "verificationStatus": "confirmed"
            }
        }, 
        {
            "request": {
                "method": "PUT", 
                "url": "Condition/ehealth-Condition-39"
            }, 
            "resource": {
                "clinicalStatus": "active", 
                "code": {
                    "coding": [
                        {
                            "code": "168750009", 
                            "display": "Abnormal mammogram, unspecified", 
                            "system": "http://snomed.info/sct"
                        }
                    ], 
                    "text": "Abnormal mammogram, unspecified"
                }, 
                "id": "ehealth-Condition-39", 
                "onsetDateTime": "2005-02-20", 
                "resourceType": "Condition", 
                "subject": {
                    "reference": "Patient/ehealth-1642068"
                }, 
                "text": {
                    "div": "<div xmlns=\"http://www.w3.org/1999/xhtml\">Abnormal mammogram, unspecified</div>", 
                    "status": "generated"
                }, 
                "verificationStatus": "confirmed"
            }
        }, 
        {
            "request": {
                "method": "PUT", 
                "url": "Condition/ehealth-Condition-40"
            }, 
            "resource": {
                "clinicalStatus": "active", 
                "code": {
                    "coding": [
                        {
                            "code": "396275006", 
                            "display": "Osteoarthritis", 
                            "system": "http://snomed.info/sct"
                        }
                    ], 
                    "text": "Osteoarthritis"
                }, 
                "id": "ehealth-Condition-40", 
                "onsetDateTime": "2005-02-20", 
                "resourceType": "Condition", 
                "subject": {
                    "reference": "Patient/ehealth-1642068"
                }, 
                "text": {
                    "div": "<div xmlns=\"http://www.w3.org/1999/xhtml\">Osteoarthritis</div>", 
                    "status": "generated"
                }, 
                "verificationStatus": "confirmed"
            }
        }, 
        {
            "request": {
                "method": "PUT", 
                "url": "Condition/ehealth-Condition-41"
            }, 
            "resource": {
                "clinicalStatus": "active", 
                "code": {
                    "coding": [
                        {
                            "code": "10601006", 
                            "display": "Pain in limb", 
                            "system": "http://snomed.info/sct"
                        }
                    ], 
                    "text": "Pain in limb"
                }, 
                "id": "ehealth-Condition-41", 
                "onsetDateTime": "2005-12-20", 
                "resourceType": "Condition", 
                "subject": {
                    "reference": "Patient/ehealth-1642068"
                }, 
                "text": {
                    "div": "<div xmlns=\"http://www.w3.org/1999/xhtml\">Pain in limb</div>", 
                    "status": "generated"
                }, 
                "verificationStatus": "confirmed"
            }
        }, 
        {
            "request": {
                "method": "PUT", 
                "url": "Condition/ehealth-Condition-42"
            }, 
            "resource": {
                "clinicalStatus": "active", 
                "code": {
                    "coding": [
                        {
                            "code": "443092002", 
                            "display": "Exostosis of unspecified site", 
                            "system": "http://snomed.info/sct"
                        }
                    ], 
                    "text": "Exostosis of unspecified site"
                }, 
                "id": "ehealth-Condition-42", 
                "onsetDateTime": "2006-01-07", 
                "resourceType": "Condition", 
                "subject": {
                    "reference": "Patient/ehealth-1642068"
                }, 
                "text": {
                    "div": "<div xmlns=\"http://www.w3.org/1999/xhtml\">Exostosis of unspecified site</div>", 
                    "status": "generated"
                }, 
                "verificationStatus": "confirmed"
            }
        }, 
        {
            "request": {
                "method": "PUT", 
                "url": "Condition/ehealth-Condition-43"
            }, 
            "resource": {
                "clinicalStatus": "active", 
                "code": {
                    "coding": [
                        {
                            "code": "161591004", 
                            "display": "H/O: penicillin allergy", 
                            "system": "http://snomed.info/sct"
                        }
                    ], 
                    "text": "H/O: penicillin allergy"
                }, 
                "id": "ehealth-Condition-43", 
                "onsetDateTime": "2006-01-07", 
                "resourceType": "Condition", 
                "subject": {
                    "reference": "Patient/ehealth-1642068"
                }, 
                "text": {
                    "div": "<div xmlns=\"http://www.w3.org/1999/xhtml\">H/O: penicillin allergy</div>", 
                    "status": "generated"
                }, 
                "verificationStatus": "confirmed"
            }
        }, 
        {
            "request": {
                "method": "PUT", 
                "url": "Procedure/ehealth-Procedure-5"
            }, 
            "resource": {
                "code": {
                    "coding": [
                        {
                            "code": "359728003", 
                            "display": "Radical mastectomy including pectoral muscles and axillary lymph nodes", 
                            "system": "http://snomed.info/sct"
                        }
                    ], 
                    "text": "Radical mastectomy including pectoral muscles and axillary lymph nodes"
                }, 
                "id": "ehealth-Procedure-5", 
                "performedDateTime": "2010-12-19", 
                "resourceType": "Procedure", 
                "status": "completed", 
                "subject": {
                    "reference": "Patient/ehealth-1642068"
                }, 
                "text": {
                    "div": "<div xmlns=\"http://www.w3.org/1999/xhtml\">Radical mastectomy including pectoral muscles and axillary lymph nodes</div>", 
                    "status": "generated"
                }
            }
        }, 
        {
            "request": {
                "method": "PUT", 
                "url": "Procedure/ehealth-Procedure-6"
            }, 
            "resource": {
                "code": {
                    "coding": [
                        {
                            "code": "169961004", 
                            "display": "Normal birth", 
                            "system": "http://snomed.info/sct"
                        }
                    ], 
                    "text": "Normal birth"
                }, 
                "id": "ehealth-Procedure-6", 
                "performedDateTime": "1980-02-12", 
                "resourceType": "Procedure", 
                "status": "completed", 
                "subject": {
                    "reference": "Patient/ehealth-1642068"
                }, 
                "text": {
                    "div": "<div xmlns=\"http://www.w3.org/1999/xhtml\">Normal birth</div>", 
                    "status": "generated"
                }
            }
        }, 
        {
            "request": {
                "method": "PUT", 
                "url": "Observation/ehealth-smokingstatus-27"
            }, 
            "resource": {
                "category": [
                    {
                        "coding": [
                            {
                                "code": "social-history", 
                                "display": "Social History", 
                                "system": "http://hl7.org/fhir/observation-category"
                            }
                        ], 
                        "text": "Social History"
                    }
                ], 
                "code": {
                    "coding": [
                        {
                            "code": "72166-2", 
                            "display": "Tobacco smoking status", 
                            "system": "http://loinc.org"
                        }
                    ], 
                    "text": "Tobacco smoking status"
                }, 
                "effectiveDateTime": "2016-07-21", 
                "id": "ehealth-smokingstatus-27", 
                "identifier": [
                    {
                        "system": "http://www.bmc.nl/zorgportal/identifiers/observations", 
                        "use": "official", 
                        "value": "ehealth-27"
                    }
                ], 
                "performer": [
                    {
                        "reference": "Practitioner/ehealth-Practitioner-72004454"
                    }
                ], 
                "resourceType": "Observation", 
                "status": "final", 
                "subject": {
                    "reference": "Patient/ehealth-1642068"
                }, 
                "text": {
                    "div": "<div xmlns=\"http://www.w3.org/1999/xhtml\">Tobacco smoking status: Never smoker</div>", 
                    "status": "generated"
                }, 
                "valueCodeableConcept": {
                    "coding": [
                        {
                            "code": "266919005", 
                            "display": "Never smoker", 
                            "system": "http://snomed.info/sct"
                        }
                    ], 
                    "text": "Never smoker"
                }
            }
        }, 
        {
            "request": {
                "method": "PUT", 
                "url": "AllergyIntolerance/ehealth-AllergyIntolerance-38"
            }, 
            "resource": {
                "assertedDate": "2000", 
                "clinicalStatus": "active", 
                "code": {
                    "coding": [
                        {
                            "code": "716186003", 
                            "display": "No known allergies", 
                            "system": "http://snomed.info/sct"
                        }
                    ], 
                    "text": "No known allergies"
                }, 
                "id": "ehealth-AllergyIntolerance-38", 
                "patient": {
                    "reference": "Patient/ehealth-1642068"
                }, 
                "resourceType": "AllergyIntolerance", 
                "text": {
                    "div": "<div xmlns=\"http://www.w3.org/1999/xhtml\">No known allergies</div>", 
                    "status": "generated"
                }, 
                "verificationStatus": "confirmed"
            }
        }
    ], 
    "resourceType": "Bundle", 
    "type": "transaction"
}
